workerid,rt,trial_type,actual_utterance,name,refexp,gender,num_objects,object,effect,actual_cause,object_level,targetpos,stimtype,slider_id,quantifier,actual_effect_question,cause,response,other_gender,slide_number_in_experiment
0,2016,speakerreliability,NA,NA,robot with the blue hat and the buttons,NA,NA,NA,NA,NA,NA,s2_vx,overinformative,NA,NA,NA,NA,s2_vx,NA,3
0,1795,speakerreliability,NA,NA,green monster with the scarf and the two big teeth,NA,NA,NA,NA,NA,NA,sx_v2,overinformative,NA,NA,NA,NA,sx_v2,NA,4
0,1951,speakerreliability,NA,NA,robot,NA,NA,NA,NA,NA,NA,s1_vx,underinformative,NA,NA,NA,NA,sx_vx,NA,5
0,1451,speakerreliability,NA,NA,purple monster with the red hat who&quotechars grinning sideways,NA,NA,NA,NA,NA,NA,s1_v1,overinformative,NA,NA,NA,NA,s1_v1,NA,6
0,1154,speakerreliability,NA,NA,guy with the red hat,NA,NA,NA,NA,NA,NA,s1_v1,underinformative,NA,NA,NA,NA,s1_v2,NA,7
0,1902,speakerreliability,NA,NA,purple monster,NA,NA,NA,NA,NA,NA,sx_v1,underinformative,NA,NA,NA,NA,sx_v1,NA,8
0,12964,cause_effect_prior,"""Some of the chocolate bars froze.""",Lisa,NA,F,15,chocolate bars,froze,Lisa put  15 chocolate bars  in the freezer.,object_mid,NA,NA,none,Some,How many chocolate bars froze?,put __ in the freezer,0,M,10
0,12964,cause_effect_prior,"""Some of the chocolate bars froze.""",Lisa,NA,F,15,chocolate bars,froze,Lisa put  15 chocolate bars  in the freezer.,object_mid,NA,NA,lower_half,Some,How many chocolate bars froze?,put __ in the freezer,0.87,M,10
0,12964,cause_effect_prior,"""Some of the chocolate bars froze.""",Lisa,NA,F,15,chocolate bars,froze,Lisa put  15 chocolate bars  in the freezer.,object_mid,NA,NA,upper_half,Some,How many chocolate bars froze?,put __ in the freezer,0.45,M,10
0,12964,cause_effect_prior,"""Some of the chocolate bars froze.""",Lisa,NA,F,15,chocolate bars,froze,Lisa put  15 chocolate bars  in the freezer.,object_mid,NA,NA,all,Some,How many chocolate bars froze?,put __ in the freezer,0,M,10
0,7934,cause_effect_prior,"""None of the ice cubes melted.""",Anna,NA,F,15,ice cubes,melted,Anna left  15 ice cubes  in the hot sun.,object_high,NA,NA,none,None,How many ice cubes melted?,left __ in the hot sun,1,M,11
0,7934,cause_effect_prior,"""None of the ice cubes melted.""",Anna,NA,F,15,ice cubes,melted,Anna left  15 ice cubes  in the hot sun.,object_high,NA,NA,lower_half,None,How many ice cubes melted?,left __ in the hot sun,0,M,11
0,7934,cause_effect_prior,"""None of the ice cubes melted.""",Anna,NA,F,15,ice cubes,melted,Anna left  15 ice cubes  in the hot sun.,object_high,NA,NA,upper_half,None,How many ice cubes melted?,left __ in the hot sun,0,M,11
0,7934,cause_effect_prior,"""None of the ice cubes melted.""",Anna,NA,F,15,ice cubes,melted,Anna left  15 ice cubes  in the hot sun.,object_high,NA,NA,all,None,How many ice cubes melted?,left __ in the hot sun,0,M,11
0,14515,cause_effect_prior,"""Why does Lucy always leave her stuff in the driveway?""",Deborah,NA,F,15,sunglasses,broke,Deborah ran  15 sunglasses  over with a car.,object_high,NA,NA,none,long_filler,How many sunglasses broke?,ran __ over with a car,0,M,12
0,14515,cause_effect_prior,"""Why does Lucy always leave her stuff in the driveway?""",Deborah,NA,F,15,sunglasses,broke,Deborah ran  15 sunglasses  over with a car.,object_high,NA,NA,lower_half,long_filler,How many sunglasses broke?,ran __ over with a car,0,M,12
0,14515,cause_effect_prior,"""Why does Lucy always leave her stuff in the driveway?""",Deborah,NA,F,15,sunglasses,broke,Deborah ran  15 sunglasses  over with a car.,object_high,NA,NA,upper_half,long_filler,How many sunglasses broke?,ran __ over with a car,0,M,12
0,14515,cause_effect_prior,"""Why does Lucy always leave her stuff in the driveway?""",Deborah,NA,F,15,sunglasses,broke,Deborah ran  15 sunglasses  over with a car.,object_high,NA,NA,all,long_filler,How many sunglasses broke?,ran __ over with a car,1,M,12
0,8791,cause_effect_prior,"""Some of the toy cars rolled.""",Frank,NA,M,15,toy cars,rolled,Frank pushed  15 toy cars.,object_low,NA,NA,none,Some,How many toy cars rolled?,pushed __,0,M,13
0,8791,cause_effect_prior,"""Some of the toy cars rolled.""",Frank,NA,M,15,toy cars,rolled,Frank pushed  15 toy cars.,object_low,NA,NA,lower_half,Some,How many toy cars rolled?,pushed __,0.83,M,13
0,8791,cause_effect_prior,"""Some of the toy cars rolled.""",Frank,NA,M,15,toy cars,rolled,Frank pushed  15 toy cars.,object_low,NA,NA,upper_half,Some,How many toy cars rolled?,pushed __,0.48,M,13
0,8791,cause_effect_prior,"""Some of the toy cars rolled.""",Frank,NA,M,15,toy cars,rolled,Frank pushed  15 toy cars.,object_low,NA,NA,all,Some,How many toy cars rolled?,pushed __,0,M,13
0,6910,cause_effect_prior,"""Some of the shelves fell down.""",Kenneth,NA,M,15,shelves,fell down,Kenneth punched  15 shelves.,object_low,NA,NA,none,Some,How many shelves fell down?,punched __,0,M,14
0,6910,cause_effect_prior,"""Some of the shelves fell down.""",Kenneth,NA,M,15,shelves,fell down,Kenneth punched  15 shelves.,object_low,NA,NA,lower_half,Some,How many shelves fell down?,punched __,0.6,M,14
0,6910,cause_effect_prior,"""Some of the shelves fell down.""",Kenneth,NA,M,15,shelves,fell down,Kenneth punched  15 shelves.,object_low,NA,NA,upper_half,Some,How many shelves fell down?,punched __,0.4,M,14
0,6910,cause_effect_prior,"""Some of the shelves fell down.""",Kenneth,NA,M,15,shelves,fell down,Kenneth punched  15 shelves.,object_low,NA,NA,all,Some,How many shelves fell down?,punched __,0,M,14
0,11686,cause_effect_prior,"""Pretty normal.""",Patrick,NA,M,15,candles,exploded,Patrick lit  15 candles.,object_low,NA,NA,none,short_filler,How many candles exploded?,lit __,1,M,15
0,11686,cause_effect_prior,"""Pretty normal.""",Patrick,NA,M,15,candles,exploded,Patrick lit  15 candles.,object_low,NA,NA,lower_half,short_filler,How many candles exploded?,lit __,0,M,15
0,11686,cause_effect_prior,"""Pretty normal.""",Patrick,NA,M,15,candles,exploded,Patrick lit  15 candles.,object_low,NA,NA,upper_half,short_filler,How many candles exploded?,lit __,0,M,15
0,11686,cause_effect_prior,"""Pretty normal.""",Patrick,NA,M,15,candles,exploded,Patrick lit  15 candles.,object_low,NA,NA,all,short_filler,How many candles exploded?,lit __,0,M,15
0,7714,cause_effect_prior,"""All of the banana peels decomposed.""",Ruth,NA,F,15,banana peels,decomposed,Ruth put  15 banana peels  in a compost pile for a month.,object_high,NA,NA,none,All,How many banana peels decomposed?,put __ in a compost pile for a month,0,M,16
0,7714,cause_effect_prior,"""All of the banana peels decomposed.""",Ruth,NA,F,15,banana peels,decomposed,Ruth put  15 banana peels  in a compost pile for a month.,object_high,NA,NA,lower_half,All,How many banana peels decomposed?,put __ in a compost pile for a month,0,M,16
0,7714,cause_effect_prior,"""All of the banana peels decomposed.""",Ruth,NA,F,15,banana peels,decomposed,Ruth put  15 banana peels  in a compost pile for a month.,object_high,NA,NA,upper_half,All,How many banana peels decomposed?,put __ in a compost pile for a month,0,M,16
0,7714,cause_effect_prior,"""All of the banana peels decomposed.""",Ruth,NA,F,15,banana peels,decomposed,Ruth put  15 banana peels  in a compost pile for a month.,object_high,NA,NA,all,All,How many banana peels decomposed?,put __ in a compost pile for a month,1,M,16
0,6782,cause_effect_prior,"""Some of the notebooks landed flat.""",Nancy,NA,F,15,notebooks,landed flat,Nancy tossed  15 notebooks.,object_low,NA,NA,none,Some,How many notebooks landed flat?,tossed __,0,M,17
0,6782,cause_effect_prior,"""Some of the notebooks landed flat.""",Nancy,NA,F,15,notebooks,landed flat,Nancy tossed  15 notebooks.,object_low,NA,NA,lower_half,Some,How many notebooks landed flat?,tossed __,0.58,M,17
0,6782,cause_effect_prior,"""Some of the notebooks landed flat.""",Nancy,NA,F,15,notebooks,landed flat,Nancy tossed  15 notebooks.,object_low,NA,NA,upper_half,Some,How many notebooks landed flat?,tossed __,0.38,M,17
0,6782,cause_effect_prior,"""Some of the notebooks landed flat.""",Nancy,NA,F,15,notebooks,landed flat,Nancy tossed  15 notebooks.,object_low,NA,NA,all,Some,How many notebooks landed flat?,tossed __,0,M,17
0,5264,cause_effect_prior,"""Some of the hats blew away.""",Stephanie,NA,F,15,hats,blew away,Stephanie left  15 hats  on a table on a windy day.,object_mid,NA,NA,none,Some,How many hats blew away?,left __ on a table on a windy day,0,M,18
0,5264,cause_effect_prior,"""Some of the hats blew away.""",Stephanie,NA,F,15,hats,blew away,Stephanie left  15 hats  on a table on a windy day.,object_mid,NA,NA,lower_half,Some,How many hats blew away?,left __ on a table on a windy day,0.59,M,18
0,5264,cause_effect_prior,"""Some of the hats blew away.""",Stephanie,NA,F,15,hats,blew away,Stephanie left  15 hats  on a table on a windy day.,object_mid,NA,NA,upper_half,Some,How many hats blew away?,left __ on a table on a windy day,0.34,M,18
0,5264,cause_effect_prior,"""Some of the hats blew away.""",Stephanie,NA,F,15,hats,blew away,Stephanie left  15 hats  on a table on a windy day.,object_mid,NA,NA,all,Some,How many hats blew away?,left __ on a table on a windy day,0,M,18
0,5914,cause_effect_prior,"""Some of the rocks burnt.""",Michelle,NA,F,15,rocks,burnt,Michelle threw  15 rocks  into a fire.,object_low,NA,NA,none,Some,How many rocks burnt?,threw __ into a fire,0,M,19
0,5914,cause_effect_prior,"""Some of the rocks burnt.""",Michelle,NA,F,15,rocks,burnt,Michelle threw  15 rocks  into a fire.,object_low,NA,NA,lower_half,Some,How many rocks burnt?,threw __ into a fire,0.59,M,19
0,5914,cause_effect_prior,"""Some of the rocks burnt.""",Michelle,NA,F,15,rocks,burnt,Michelle threw  15 rocks  into a fire.,object_low,NA,NA,upper_half,Some,How many rocks burnt?,threw __ into a fire,0.39,M,19
0,5914,cause_effect_prior,"""Some of the rocks burnt.""",Michelle,NA,F,15,rocks,burnt,Michelle threw  15 rocks  into a fire.,object_low,NA,NA,all,Some,How many rocks burnt?,threw __ into a fire,0,M,19
0,5455,cause_effect_prior,"""All of the cakes stuck to the wall.""",Donald,NA,M,15,cakes,stuck to the wall,Donald threw  15 cakes  against a wall.,object_mid,NA,NA,none,All,How many cakes stuck to the wall?,threw __ against a wall,0,M,20
0,5455,cause_effect_prior,"""All of the cakes stuck to the wall.""",Donald,NA,M,15,cakes,stuck to the wall,Donald threw  15 cakes  against a wall.,object_mid,NA,NA,lower_half,All,How many cakes stuck to the wall?,threw __ against a wall,0,M,20
0,5455,cause_effect_prior,"""All of the cakes stuck to the wall.""",Donald,NA,M,15,cakes,stuck to the wall,Donald threw  15 cakes  against a wall.,object_mid,NA,NA,upper_half,All,How many cakes stuck to the wall?,threw __ against a wall,0,M,20
0,5455,cause_effect_prior,"""All of the cakes stuck to the wall.""",Donald,NA,M,15,cakes,stuck to the wall,Donald threw  15 cakes  against a wall.,object_mid,NA,NA,all,All,How many cakes stuck to the wall?,threw __ against a wall,1,M,20
0,4147,cause_effect_prior,"""Some of the shirts ripped.""",John,NA,M,15,shirts,ripped,John used  15 shirts  as dog toys.,object_mid,NA,NA,none,Some,How many shirts ripped?,used __ as dog toys,0,M,21
0,4147,cause_effect_prior,"""Some of the shirts ripped.""",John,NA,M,15,shirts,ripped,John used  15 shirts  as dog toys.,object_mid,NA,NA,lower_half,Some,How many shirts ripped?,used __ as dog toys,0.58,M,21
0,4147,cause_effect_prior,"""Some of the shirts ripped.""",John,NA,M,15,shirts,ripped,John used  15 shirts  as dog toys.,object_mid,NA,NA,upper_half,Some,How many shirts ripped?,used __ as dog toys,0.32,M,21
0,4147,cause_effect_prior,"""Some of the shirts ripped.""",John,NA,M,15,shirts,ripped,John used  15 shirts  as dog toys.,object_mid,NA,NA,all,Some,How many shirts ripped?,used __ as dog toys,0,M,21
0,6713,cause_effect_prior,"""None of the carrots dissolved.""",Angela,NA,F,15,carrots,dissolved,Angela put  15 carrots  in a bucket of water.,object_low,NA,NA,none,None,How many carrots dissolved?,put __ in a bucket of water,1,M,22
0,6713,cause_effect_prior,"""None of the carrots dissolved.""",Angela,NA,F,15,carrots,dissolved,Angela put  15 carrots  in a bucket of water.,object_low,NA,NA,lower_half,None,How many carrots dissolved?,put __ in a bucket of water,0,M,22
0,6713,cause_effect_prior,"""None of the carrots dissolved.""",Angela,NA,F,15,carrots,dissolved,Angela put  15 carrots  in a bucket of water.,object_low,NA,NA,upper_half,None,How many carrots dissolved?,put __ in a bucket of water,0,M,22
0,6713,cause_effect_prior,"""None of the carrots dissolved.""",Angela,NA,F,15,carrots,dissolved,Angela put  15 carrots  in a bucket of water.,object_low,NA,NA,all,None,How many carrots dissolved?,put __ in a bucket of water,0,M,22
0,13128,cause_effect_prior,"""It&quotechars just fun to throw stuff in the water.""",Brenda,NA,F,15,cups,sank,Brenda threw  15 cups  into a pool.,object_mid,NA,NA,none,long_filler,How many cups sank?,threw __ into a pool,0.43,M,23
0,13128,cause_effect_prior,"""It&quotechars just fun to throw stuff in the water.""",Brenda,NA,F,15,cups,sank,Brenda threw  15 cups  into a pool.,object_mid,NA,NA,lower_half,long_filler,How many cups sank?,threw __ into a pool,0.53,M,23
0,13128,cause_effect_prior,"""It&quotechars just fun to throw stuff in the water.""",Brenda,NA,F,15,cups,sank,Brenda threw  15 cups  into a pool.,object_mid,NA,NA,upper_half,long_filler,How many cups sank?,threw __ into a pool,0.5,M,23
0,13128,cause_effect_prior,"""It&quotechars just fun to throw stuff in the water.""",Brenda,NA,F,15,cups,sank,Brenda threw  15 cups  into a pool.,object_mid,NA,NA,all,long_filler,How many cups sank?,threw __ into a pool,0.54,M,23
0,8033,cause_effect_prior,"""Nothing surprising there.""",Linda,NA,F,15,birds,ate the seeds,Linda left seeds out for  15 birds.,object_high,NA,NA,none,short_filler,How many birds ate the seeds?,left seeds out for __,0.27,M,24
0,8033,cause_effect_prior,"""Nothing surprising there.""",Linda,NA,F,15,birds,ate the seeds,Linda left seeds out for  15 birds.,object_high,NA,NA,lower_half,short_filler,How many birds ate the seeds?,left seeds out for __,0.5,M,24
0,8033,cause_effect_prior,"""Nothing surprising there.""",Linda,NA,F,15,birds,ate the seeds,Linda left seeds out for  15 birds.,object_high,NA,NA,upper_half,short_filler,How many birds ate the seeds?,left seeds out for __,0.56,M,24
0,8033,cause_effect_prior,"""Nothing surprising there.""",Linda,NA,F,15,birds,ate the seeds,Linda left seeds out for  15 birds.,object_high,NA,NA,all,short_filler,How many birds ate the seeds?,left seeds out for __,0.63,M,24
1,2371,speakerreliability,NA,NA,green monster with the scarf and the two big teeth,NA,NA,NA,NA,NA,NA,sx_v2,overinformative,NA,NA,NA,NA,sx_v2,NA,3
1,1991,speakerreliability,NA,NA,purple monster,NA,NA,NA,NA,NA,NA,sx_v1,underinformative,NA,NA,NA,NA,sx_v1,NA,4
1,1537,speakerreliability,NA,NA,guy with the red hat,NA,NA,NA,NA,NA,NA,s1_v1,underinformative,NA,NA,NA,NA,s1_v2,NA,5
1,1566,speakerreliability,NA,NA,robot,NA,NA,NA,NA,NA,NA,s1_vx,underinformative,NA,NA,NA,NA,sx_vx,NA,6
1,2073,speakerreliability,NA,NA,robot with the blue hat and the buttons,NA,NA,NA,NA,NA,NA,s2_vx,overinformative,NA,NA,NA,NA,s2_vx,NA,7
1,1734,speakerreliability,NA,NA,purple monster with the red hat who&quotechars grinning sideways,NA,NA,NA,NA,NA,NA,s1_v1,overinformative,NA,NA,NA,NA,s1_v1,NA,8
1,8338,cause_effect_prior,"""All of the logs broke.""",Linda,NA,F,15,logs,broke,Linda ran  15 logs  over with a car.,object_low,NA,NA,none,All,How many logs broke?,ran __ over with a car,0.07,M,10
1,8338,cause_effect_prior,"""All of the logs broke.""",Linda,NA,F,15,logs,broke,Linda ran  15 logs  over with a car.,object_low,NA,NA,lower_half,All,How many logs broke?,ran __ over with a car,0.08,M,10
1,8338,cause_effect_prior,"""All of the logs broke.""",Linda,NA,F,15,logs,broke,Linda ran  15 logs  over with a car.,object_low,NA,NA,upper_half,All,How many logs broke?,ran __ over with a car,0.73,M,10
1,8338,cause_effect_prior,"""All of the logs broke.""",Linda,NA,F,15,logs,broke,Linda ran  15 logs  over with a car.,object_low,NA,NA,all,All,How many logs broke?,ran __ over with a car,0.91,M,10
1,7680,cause_effect_prior,"""Some of the oreos dissolved.""",Catherine,NA,F,15,oreos,dissolved,Catherine put  15 oreos  in a bucket of water.,object_mid,NA,NA,none,Some,How many oreos dissolved?,put __ in a bucket of water,0.21,M,11
1,7681,cause_effect_prior,"""Some of the oreos dissolved.""",Catherine,NA,F,15,oreos,dissolved,Catherine put  15 oreos  in a bucket of water.,object_mid,NA,NA,lower_half,Some,How many oreos dissolved?,put __ in a bucket of water,0.77,M,11
1,7681,cause_effect_prior,"""Some of the oreos dissolved.""",Catherine,NA,F,15,oreos,dissolved,Catherine put  15 oreos  in a bucket of water.,object_mid,NA,NA,upper_half,Some,How many oreos dissolved?,put __ in a bucket of water,0.66,M,11
1,7681,cause_effect_prior,"""Some of the oreos dissolved.""",Catherine,NA,F,15,oreos,dissolved,Catherine put  15 oreos  in a bucket of water.,object_mid,NA,NA,all,Some,How many oreos dissolved?,put __ in a bucket of water,0.18,M,11
1,5687,cause_effect_prior,"""All of the marbles sank.""",Gary,NA,M,15,marbles,sank,Gary threw  15 marbles  into a pool.,object_high,NA,NA,none,All,How many marbles sank?,threw __ into a pool,0.11,M,12
1,5687,cause_effect_prior,"""All of the marbles sank.""",Gary,NA,M,15,marbles,sank,Gary threw  15 marbles  into a pool.,object_high,NA,NA,lower_half,All,How many marbles sank?,threw __ into a pool,0.17,M,12
1,5687,cause_effect_prior,"""All of the marbles sank.""",Gary,NA,M,15,marbles,sank,Gary threw  15 marbles  into a pool.,object_high,NA,NA,upper_half,All,How many marbles sank?,threw __ into a pool,0.79,M,12
1,5687,cause_effect_prior,"""All of the marbles sank.""",Gary,NA,M,15,marbles,sank,Gary threw  15 marbles  into a pool.,object_high,NA,NA,all,All,How many marbles sank?,threw __ into a pool,0.87,M,12
1,13286,cause_effect_prior,"""That reminds me I need to visit my grandma.""",Sarah,NA,F,15,chocolate bars,froze,Sarah put  15 chocolate bars  in the freezer.,object_mid,NA,NA,none,long_filler,How many chocolate bars froze?,put __ in the freezer,0.05,M,13
1,13286,cause_effect_prior,"""That reminds me I need to visit my grandma.""",Sarah,NA,F,15,chocolate bars,froze,Sarah put  15 chocolate bars  in the freezer.,object_mid,NA,NA,lower_half,long_filler,How many chocolate bars froze?,put __ in the freezer,0.04,M,13
1,13286,cause_effect_prior,"""That reminds me I need to visit my grandma.""",Sarah,NA,F,15,chocolate bars,froze,Sarah put  15 chocolate bars  in the freezer.,object_mid,NA,NA,upper_half,long_filler,How many chocolate bars froze?,put __ in the freezer,0.06,M,13
1,13286,cause_effect_prior,"""That reminds me I need to visit my grandma.""",Sarah,NA,F,15,chocolate bars,froze,Sarah put  15 chocolate bars  in the freezer.,object_mid,NA,NA,all,long_filler,How many chocolate bars froze?,put __ in the freezer,0.07,M,13
1,8690,cause_effect_prior,"""I love throwing stuff, too.""",Carolyn,NA,F,15,pancakes,landed flat,Carolyn tossed  15 pancakes.,object_mid,NA,NA,none,long_filler,How many pancakes landed flat?,tossed __,0.09,M,14
1,8690,cause_effect_prior,"""I love throwing stuff, too.""",Carolyn,NA,F,15,pancakes,landed flat,Carolyn tossed  15 pancakes.,object_mid,NA,NA,lower_half,long_filler,How many pancakes landed flat?,tossed __,0.67,M,14
1,8690,cause_effect_prior,"""I love throwing stuff, too.""",Carolyn,NA,F,15,pancakes,landed flat,Carolyn tossed  15 pancakes.,object_mid,NA,NA,upper_half,long_filler,How many pancakes landed flat?,tossed __,0.22,M,14
1,8690,cause_effect_prior,"""I love throwing stuff, too.""",Carolyn,NA,F,15,pancakes,landed flat,Carolyn tossed  15 pancakes.,object_mid,NA,NA,all,long_filler,How many pancakes landed flat?,tossed __,0.12,M,14
1,5814,cause_effect_prior,"""Some of the gas tanks exploded.""",Shirley,NA,F,15,gas tanks,exploded,Shirley lit  15 gas tanks.,object_high,NA,NA,none,Some,How many gas tanks exploded?,lit __,0.09,M,15
1,5814,cause_effect_prior,"""Some of the gas tanks exploded.""",Shirley,NA,F,15,gas tanks,exploded,Shirley lit  15 gas tanks.,object_high,NA,NA,lower_half,Some,How many gas tanks exploded?,lit __,0.76,M,15
1,5814,cause_effect_prior,"""Some of the gas tanks exploded.""",Shirley,NA,F,15,gas tanks,exploded,Shirley lit  15 gas tanks.,object_high,NA,NA,upper_half,Some,How many gas tanks exploded?,lit __,0.82,M,15
1,5814,cause_effect_prior,"""Some of the gas tanks exploded.""",Shirley,NA,F,15,gas tanks,exploded,Shirley lit  15 gas tanks.,object_high,NA,NA,all,Some,How many gas tanks exploded?,lit __,0.15,M,15
1,7510,cause_effect_prior,"""None of the shirts ripped.""",Nicholas,NA,M,15,shirts,ripped,Nicholas used  15 shirts  as dog toys.,object_mid,NA,NA,none,None,How many shirts ripped?,used __ as dog toys,0.8,M,16
1,7510,cause_effect_prior,"""None of the shirts ripped.""",Nicholas,NA,M,15,shirts,ripped,Nicholas used  15 shirts  as dog toys.,object_mid,NA,NA,lower_half,None,How many shirts ripped?,used __ as dog toys,0.6,M,16
1,7510,cause_effect_prior,"""None of the shirts ripped.""",Nicholas,NA,M,15,shirts,ripped,Nicholas used  15 shirts  as dog toys.,object_mid,NA,NA,upper_half,None,How many shirts ripped?,used __ as dog toys,0.16,M,16
1,7510,cause_effect_prior,"""None of the shirts ripped.""",Nicholas,NA,M,15,shirts,ripped,Nicholas used  15 shirts  as dog toys.,object_mid,NA,NA,all,None,How many shirts ripped?,used __ as dog toys,0.13,M,16
1,6515,cause_effect_prior,"""None of the butterflies ate the seeds.""",Donald,NA,M,15,butterflies,ate the seeds,Donald left seeds out for  15 butterflies.,object_mid,NA,NA,none,None,How many butterflies ate the seeds?,left seeds out for __,0.77,M,17
1,6515,cause_effect_prior,"""None of the butterflies ate the seeds.""",Donald,NA,M,15,butterflies,ate the seeds,Donald left seeds out for  15 butterflies.,object_mid,NA,NA,lower_half,None,How many butterflies ate the seeds?,left seeds out for __,0.57,M,17
1,6515,cause_effect_prior,"""None of the butterflies ate the seeds.""",Donald,NA,M,15,butterflies,ate the seeds,Donald left seeds out for  15 butterflies.,object_mid,NA,NA,upper_half,None,How many butterflies ate the seeds?,left seeds out for __,0.1,M,17
1,6515,cause_effect_prior,"""None of the butterflies ate the seeds.""",Donald,NA,M,15,butterflies,ate the seeds,Donald left seeds out for  15 butterflies.,object_mid,NA,NA,all,None,How many butterflies ate the seeds?,left seeds out for __,0.08,M,17
1,8084,cause_effect_prior,"""As usual.""",Samantha,NA,F,15,hats,blew away,Samantha left  15 hats  on a table on a windy day.,object_mid,NA,NA,none,short_filler,How many hats blew away?,left __ on a table on a windy day,0.09,M,18
1,8084,cause_effect_prior,"""As usual.""",Samantha,NA,F,15,hats,blew away,Samantha left  15 hats  on a table on a windy day.,object_mid,NA,NA,lower_half,short_filler,How many hats blew away?,left __ on a table on a windy day,0.57,M,18
1,8084,cause_effect_prior,"""As usual.""",Samantha,NA,F,15,hats,blew away,Samantha left  15 hats  on a table on a windy day.,object_mid,NA,NA,upper_half,short_filler,How many hats blew away?,left __ on a table on a windy day,0.38,M,18
1,8084,cause_effect_prior,"""As usual.""",Samantha,NA,F,15,hats,blew away,Samantha left  15 hats  on a table on a windy day.,object_mid,NA,NA,all,short_filler,How many hats blew away?,left __ on a table on a windy day,0.12,M,18
1,5024,cause_effect_prior,"""Some of the books burnt.""",Samuel,NA,M,15,books,burnt,Samuel threw  15 books  into a fire.,object_mid,NA,NA,none,Some,How many books burnt?,threw __ into a fire,0.09,M,19
1,5024,cause_effect_prior,"""Some of the books burnt.""",Samuel,NA,M,15,books,burnt,Samuel threw  15 books  into a fire.,object_mid,NA,NA,lower_half,Some,How many books burnt?,threw __ into a fire,0.74,M,19
1,5024,cause_effect_prior,"""Some of the books burnt.""",Samuel,NA,M,15,books,burnt,Samuel threw  15 books  into a fire.,object_mid,NA,NA,upper_half,Some,How many books burnt?,threw __ into a fire,0.75,M,19
1,5024,cause_effect_prior,"""Some of the books burnt.""",Samuel,NA,M,15,books,burnt,Samuel threw  15 books  into a fire.,object_mid,NA,NA,all,Some,How many books burnt?,threw __ into a fire,0.12,M,19
1,6793,cause_effect_prior,"""Some of the card towers fell down.""",Mary,NA,F,15,card towers,fell down,Mary punched  15 card towers.,object_high,NA,NA,none,Some,How many card towers fell down?,punched __,0.15,M,20
1,6793,cause_effect_prior,"""Some of the card towers fell down.""",Mary,NA,F,15,card towers,fell down,Mary punched  15 card towers.,object_high,NA,NA,lower_half,Some,How many card towers fell down?,punched __,0.63,M,20
1,6793,cause_effect_prior,"""Some of the card towers fell down.""",Mary,NA,F,15,card towers,fell down,Mary punched  15 card towers.,object_high,NA,NA,upper_half,Some,How many card towers fell down?,punched __,0.68,M,20
1,6793,cause_effect_prior,"""Some of the card towers fell down.""",Mary,NA,F,15,card towers,fell down,Mary punched  15 card towers.,object_high,NA,NA,all,Some,How many card towers fell down?,punched __,0.11,M,20
1,5825,cause_effect_prior,"""Some of the ice cubes melted.""",Brian,NA,M,15,ice cubes,melted,Brian left  15 ice cubes  in the hot sun.,object_high,NA,NA,none,Some,How many ice cubes melted?,left __ in the hot sun,0.15,M,21
1,5825,cause_effect_prior,"""Some of the ice cubes melted.""",Brian,NA,M,15,ice cubes,melted,Brian left  15 ice cubes  in the hot sun.,object_high,NA,NA,lower_half,Some,How many ice cubes melted?,left __ in the hot sun,0.81,M,21
1,5825,cause_effect_prior,"""Some of the ice cubes melted.""",Brian,NA,M,15,ice cubes,melted,Brian left  15 ice cubes  in the hot sun.,object_high,NA,NA,upper_half,Some,How many ice cubes melted?,left __ in the hot sun,0.84,M,21
1,5825,cause_effect_prior,"""Some of the ice cubes melted.""",Brian,NA,M,15,ice cubes,melted,Brian left  15 ice cubes  in the hot sun.,object_high,NA,NA,all,Some,How many ice cubes melted?,left __ in the hot sun,0.15,M,21
1,7359,cause_effect_prior,"""Pretty normal.""",Deborah,NA,F,15,toy cars,rolled,Deborah pushed  15 toy cars.,object_low,NA,NA,none,short_filler,How many toy cars rolled?,pushed __,0.08,M,22
1,7359,cause_effect_prior,"""Pretty normal.""",Deborah,NA,F,15,toy cars,rolled,Deborah pushed  15 toy cars.,object_low,NA,NA,lower_half,short_filler,How many toy cars rolled?,pushed __,0.25,M,22
1,7359,cause_effect_prior,"""Pretty normal.""",Deborah,NA,F,15,toy cars,rolled,Deborah pushed  15 toy cars.,object_low,NA,NA,upper_half,short_filler,How many toy cars rolled?,pushed __,0.31,M,22
1,7359,cause_effect_prior,"""Pretty normal.""",Deborah,NA,F,15,toy cars,rolled,Deborah pushed  15 toy cars.,object_low,NA,NA,all,short_filler,How many toy cars rolled?,pushed __,0.66,M,22
1,5037,cause_effect_prior,"""Some of the soda cans decomposed.""",Nancy,NA,F,15,soda cans,decomposed,Nancy put  15 soda cans  in a compost pile for a month.,object_low,NA,NA,none,Some,How many soda cans decomposed?,put __ in a compost pile for a month,0.15,M,23
1,5037,cause_effect_prior,"""Some of the soda cans decomposed.""",Nancy,NA,F,15,soda cans,decomposed,Nancy put  15 soda cans  in a compost pile for a month.,object_low,NA,NA,lower_half,Some,How many soda cans decomposed?,put __ in a compost pile for a month,0.69,M,23
1,5037,cause_effect_prior,"""Some of the soda cans decomposed.""",Nancy,NA,F,15,soda cans,decomposed,Nancy put  15 soda cans  in a compost pile for a month.,object_low,NA,NA,upper_half,Some,How many soda cans decomposed?,put __ in a compost pile for a month,0.73,M,23
1,5037,cause_effect_prior,"""Some of the soda cans decomposed.""",Nancy,NA,F,15,soda cans,decomposed,Nancy put  15 soda cans  in a compost pile for a month.,object_low,NA,NA,all,Some,How many soda cans decomposed?,put __ in a compost pile for a month,0.16,M,23
1,6954,cause_effect_prior,"""Some of the baseballs stuck to the wall.""",Anthony,NA,M,15,baseballs,stuck to the wall,Anthony threw  15 baseballs  against a wall.,object_low,NA,NA,none,Some,How many baseballs stuck to the wall?,threw __ against a wall,0.15,M,24
1,6954,cause_effect_prior,"""Some of the baseballs stuck to the wall.""",Anthony,NA,M,15,baseballs,stuck to the wall,Anthony threw  15 baseballs  against a wall.,object_low,NA,NA,lower_half,Some,How many baseballs stuck to the wall?,threw __ against a wall,0.73,M,24
1,6954,cause_effect_prior,"""Some of the baseballs stuck to the wall.""",Anthony,NA,M,15,baseballs,stuck to the wall,Anthony threw  15 baseballs  against a wall.,object_low,NA,NA,upper_half,Some,How many baseballs stuck to the wall?,threw __ against a wall,0.67,M,24
1,6954,cause_effect_prior,"""Some of the baseballs stuck to the wall.""",Anthony,NA,M,15,baseballs,stuck to the wall,Anthony threw  15 baseballs  against a wall.,object_low,NA,NA,all,Some,How many baseballs stuck to the wall?,threw __ against a wall,0.12,M,24
2,7635,speakerreliability,NA,NA,guy with the red hat,NA,NA,NA,NA,NA,NA,s1_v1,underinformative,NA,NA,NA,NA,s1_v1,NA,3
2,6214,speakerreliability,NA,NA,purple monster,NA,NA,NA,NA,NA,NA,sx_v1,underinformative,NA,NA,NA,NA,sx_v1,NA,4
2,4532,speakerreliability,NA,NA,purple monster with the red hat who&quotechars grinning sideways,NA,NA,NA,NA,NA,NA,s1_v1,overinformative,NA,NA,NA,NA,s1_v1,NA,5
2,2068,speakerreliability,NA,NA,green monster with the scarf and the two big teeth,NA,NA,NA,NA,NA,NA,sx_v2,overinformative,NA,NA,NA,NA,sx_v2,NA,6
2,3019,speakerreliability,NA,NA,robot,NA,NA,NA,NA,NA,NA,s1_vx,underinformative,NA,NA,NA,NA,sx_vx,NA,7
2,1809,speakerreliability,NA,NA,robot with the blue hat and the buttons,NA,NA,NA,NA,NA,NA,s2_vx,overinformative,NA,NA,NA,NA,s2_vx,NA,8
2,12965,cause_effect_prior,"""Some of the pencils melted.""",Tyler,NA,M,15,pencils,melted,Tyler left  15 pencils  in the hot sun.,object_low,NA,NA,none,Some,How many pencils melted?,left __ in the hot sun,0.01,M,10
2,12966,cause_effect_prior,"""Some of the pencils melted.""",Tyler,NA,M,15,pencils,melted,Tyler left  15 pencils  in the hot sun.,object_low,NA,NA,lower_half,Some,How many pencils melted?,left __ in the hot sun,0.04,M,10
2,12966,cause_effect_prior,"""Some of the pencils melted.""",Tyler,NA,M,15,pencils,melted,Tyler left  15 pencils  in the hot sun.,object_low,NA,NA,upper_half,Some,How many pencils melted?,left __ in the hot sun,0.55,M,10
2,12966,cause_effect_prior,"""Some of the pencils melted.""",Tyler,NA,M,15,pencils,melted,Tyler left  15 pencils  in the hot sun.,object_low,NA,NA,all,Some,How many pencils melted?,left __ in the hot sun,0.01,M,10
2,7737,cause_effect_prior,"""None of the wheelchairs rolled.""",Edward,NA,M,15,wheelchairs,rolled,Edward pushed  15 wheelchairs.,object_high,NA,NA,none,None,How many wheelchairs rolled?,pushed __,0.98,M,11
2,7737,cause_effect_prior,"""None of the wheelchairs rolled.""",Edward,NA,M,15,wheelchairs,rolled,Edward pushed  15 wheelchairs.,object_high,NA,NA,lower_half,None,How many wheelchairs rolled?,pushed __,0,M,11
2,7737,cause_effect_prior,"""None of the wheelchairs rolled.""",Edward,NA,M,15,wheelchairs,rolled,Edward pushed  15 wheelchairs.,object_high,NA,NA,upper_half,None,How many wheelchairs rolled?,pushed __,0,M,11
2,7737,cause_effect_prior,"""None of the wheelchairs rolled.""",Edward,NA,M,15,wheelchairs,rolled,Edward pushed  15 wheelchairs.,object_high,NA,NA,all,None,How many wheelchairs rolled?,pushed __,0,M,11
2,6054,cause_effect_prior,"""All of the hats blew away.""",Dorothy,NA,F,15,hats,blew away,Dorothy left  15 hats  on a table on a windy day.,object_mid,NA,NA,none,All,How many hats blew away?,left __ on a table on a windy day,0.01,M,12
2,6054,cause_effect_prior,"""All of the hats blew away.""",Dorothy,NA,F,15,hats,blew away,Dorothy left  15 hats  on a table on a windy day.,object_mid,NA,NA,lower_half,All,How many hats blew away?,left __ on a table on a windy day,0.01,M,12
2,6054,cause_effect_prior,"""All of the hats blew away.""",Dorothy,NA,F,15,hats,blew away,Dorothy left  15 hats  on a table on a windy day.,object_mid,NA,NA,upper_half,All,How many hats blew away?,left __ on a table on a windy day,0.02,M,12
2,6054,cause_effect_prior,"""All of the hats blew away.""",Dorothy,NA,F,15,hats,blew away,Dorothy left  15 hats  on a table on a windy day.,object_mid,NA,NA,all,All,How many hats blew away?,left __ on a table on a windy day,0.99,M,12
2,9612,cause_effect_prior,"""As usual.""",Janet,NA,F,15,chocolate bars,froze,Janet put  15 chocolate bars  in the freezer.,object_mid,NA,NA,none,short_filler,How many chocolate bars froze?,put __ in the freezer,0.01,M,13
2,9612,cause_effect_prior,"""As usual.""",Janet,NA,F,15,chocolate bars,froze,Janet put  15 chocolate bars  in the freezer.,object_mid,NA,NA,lower_half,short_filler,How many chocolate bars froze?,put __ in the freezer,0.01,M,13
2,9612,cause_effect_prior,"""As usual.""",Janet,NA,F,15,chocolate bars,froze,Janet put  15 chocolate bars  in the freezer.,object_mid,NA,NA,upper_half,short_filler,How many chocolate bars froze?,put __ in the freezer,0.01,M,13
2,9612,cause_effect_prior,"""As usual.""",Janet,NA,F,15,chocolate bars,froze,Janet put  15 chocolate bars  in the freezer.,object_mid,NA,NA,all,short_filler,How many chocolate bars froze?,put __ in the freezer,0.98,M,13
2,5030,cause_effect_prior,"""All of the birds ate the seeds.""",Daniel,NA,M,15,birds,ate the seeds,Daniel left seeds out for  15 birds.,object_high,NA,NA,none,All,How many birds ate the seeds?,left seeds out for __,0.01,M,14
2,5030,cause_effect_prior,"""All of the birds ate the seeds.""",Daniel,NA,M,15,birds,ate the seeds,Daniel left seeds out for  15 birds.,object_high,NA,NA,lower_half,All,How many birds ate the seeds?,left seeds out for __,0.01,M,14
2,5030,cause_effect_prior,"""All of the birds ate the seeds.""",Daniel,NA,M,15,birds,ate the seeds,Daniel left seeds out for  15 birds.,object_high,NA,NA,upper_half,All,How many birds ate the seeds?,left seeds out for __,0.01,M,14
2,5031,cause_effect_prior,"""All of the birds ate the seeds.""",Daniel,NA,M,15,birds,ate the seeds,Daniel left seeds out for  15 birds.,object_high,NA,NA,all,All,How many birds ate the seeds?,left seeds out for __,0.97,M,14
2,5593,cause_effect_prior,"""Some of the rocks burnt.""",Joshua,NA,M,15,rocks,burnt,Joshua threw  15 rocks  into a fire.,object_low,NA,NA,none,Some,How many rocks burnt?,threw __ into a fire,0,M,15
2,5593,cause_effect_prior,"""Some of the rocks burnt.""",Joshua,NA,M,15,rocks,burnt,Joshua threw  15 rocks  into a fire.,object_low,NA,NA,lower_half,Some,How many rocks burnt?,threw __ into a fire,0.17,M,15
2,5593,cause_effect_prior,"""Some of the rocks burnt.""",Joshua,NA,M,15,rocks,burnt,Joshua threw  15 rocks  into a fire.,object_low,NA,NA,upper_half,Some,How many rocks burnt?,threw __ into a fire,0.59,M,15
2,5593,cause_effect_prior,"""Some of the rocks burnt.""",Joshua,NA,M,15,rocks,burnt,Joshua threw  15 rocks  into a fire.,object_low,NA,NA,all,Some,How many rocks burnt?,threw __ into a fire,0,M,15
2,7196,cause_effect_prior,"""None of the pieces of gum stuck to the wall.""",Sarah,NA,F,15,pieces of gum,stuck to the wall,Sarah threw  15 pieces of gum  against a wall.,object_high,NA,NA,none,None,How many pieces of gum stuck to the wall?,threw __ against a wall,0.98,M,16
2,7196,cause_effect_prior,"""None of the pieces of gum stuck to the wall.""",Sarah,NA,F,15,pieces of gum,stuck to the wall,Sarah threw  15 pieces of gum  against a wall.,object_high,NA,NA,lower_half,None,How many pieces of gum stuck to the wall?,threw __ against a wall,0,M,16
2,7196,cause_effect_prior,"""None of the pieces of gum stuck to the wall.""",Sarah,NA,F,15,pieces of gum,stuck to the wall,Sarah threw  15 pieces of gum  against a wall.,object_high,NA,NA,upper_half,None,How many pieces of gum stuck to the wall?,threw __ against a wall,0,M,16
2,7196,cause_effect_prior,"""None of the pieces of gum stuck to the wall.""",Sarah,NA,F,15,pieces of gum,stuck to the wall,Sarah threw  15 pieces of gum  against a wall.,object_high,NA,NA,all,None,How many pieces of gum stuck to the wall?,threw __ against a wall,0,M,16
2,9378,cause_effect_prior,"""Some of the shirts ripped.""",Richard,NA,M,15,shirts,ripped,Richard used  15 shirts  as dog toys.,object_mid,NA,NA,none,Some,How many shirts ripped?,used __ as dog toys,0.01,M,17
2,9378,cause_effect_prior,"""Some of the shirts ripped.""",Richard,NA,M,15,shirts,ripped,Richard used  15 shirts  as dog toys.,object_mid,NA,NA,lower_half,Some,How many shirts ripped?,used __ as dog toys,0.37,M,17
2,9378,cause_effect_prior,"""Some of the shirts ripped.""",Richard,NA,M,15,shirts,ripped,Richard used  15 shirts  as dog toys.,object_mid,NA,NA,upper_half,Some,How many shirts ripped?,used __ as dog toys,0.53,M,17
2,9378,cause_effect_prior,"""Some of the shirts ripped.""",Richard,NA,M,15,shirts,ripped,Richard used  15 shirts  as dog toys.,object_mid,NA,NA,all,Some,How many shirts ripped?,used __ as dog toys,0.01,M,17
2,5000,cause_effect_prior,"""Some of the pinecones decomposed.""",Anthony,NA,M,15,pinecones,decomposed,Anthony put  15 pinecones  in a compost pile for a month.,object_mid,NA,NA,none,Some,How many pinecones decomposed?,put __ in a compost pile for a month,0,M,18
2,5000,cause_effect_prior,"""Some of the pinecones decomposed.""",Anthony,NA,M,15,pinecones,decomposed,Anthony put  15 pinecones  in a compost pile for a month.,object_mid,NA,NA,lower_half,Some,How many pinecones decomposed?,put __ in a compost pile for a month,0.37,M,18
2,5000,cause_effect_prior,"""Some of the pinecones decomposed.""",Anthony,NA,M,15,pinecones,decomposed,Anthony put  15 pinecones  in a compost pile for a month.,object_mid,NA,NA,upper_half,Some,How many pinecones decomposed?,put __ in a compost pile for a month,0.49,M,18
2,5000,cause_effect_prior,"""Some of the pinecones decomposed.""",Anthony,NA,M,15,pinecones,decomposed,Anthony put  15 pinecones  in a compost pile for a month.,object_mid,NA,NA,all,Some,How many pinecones decomposed?,put __ in a compost pile for a month,0.02,M,18
2,7502,cause_effect_prior,"""Some of the block towers fell down.""",Christina,NA,F,15,block towers,fell down,Christina punched  15 block towers.,object_mid,NA,NA,none,Some,How many block towers fell down?,punched __,0.01,M,19
2,7502,cause_effect_prior,"""Some of the block towers fell down.""",Christina,NA,F,15,block towers,fell down,Christina punched  15 block towers.,object_mid,NA,NA,lower_half,Some,How many block towers fell down?,punched __,0.46,M,19
2,7502,cause_effect_prior,"""Some of the block towers fell down.""",Christina,NA,F,15,block towers,fell down,Christina punched  15 block towers.,object_mid,NA,NA,upper_half,Some,How many block towers fell down?,punched __,0.51,M,19
2,7502,cause_effect_prior,"""Some of the block towers fell down.""",Christina,NA,F,15,block towers,fell down,Christina punched  15 block towers.,object_mid,NA,NA,all,Some,How many block towers fell down?,punched __,0,M,19
2,7294,cause_effect_prior,"""Some of the notebooks landed flat.""",Alexander,NA,M,15,notebooks,landed flat,Alexander tossed  15 notebooks.,object_low,NA,NA,none,Some,How many notebooks landed flat?,tossed __,0,M,20
2,7294,cause_effect_prior,"""Some of the notebooks landed flat.""",Alexander,NA,M,15,notebooks,landed flat,Alexander tossed  15 notebooks.,object_low,NA,NA,lower_half,Some,How many notebooks landed flat?,tossed __,0.32,M,20
2,7294,cause_effect_prior,"""Some of the notebooks landed flat.""",Alexander,NA,M,15,notebooks,landed flat,Alexander tossed  15 notebooks.,object_low,NA,NA,upper_half,Some,How many notebooks landed flat?,tossed __,0.44,M,20
2,7294,cause_effect_prior,"""Some of the notebooks landed flat.""",Alexander,NA,M,15,notebooks,landed flat,Alexander tossed  15 notebooks.,object_low,NA,NA,all,Some,How many notebooks landed flat?,tossed __,0.01,M,20
2,5084,cause_effect_prior,"""Typical.""",Eric,NA,M,15,sunglasses,broke,Eric ran  15 sunglasses  over with a car.,object_high,NA,NA,none,short_filler,How many sunglasses broke?,ran __ over with a car,0.01,M,21
2,5084,cause_effect_prior,"""Typical.""",Eric,NA,M,15,sunglasses,broke,Eric ran  15 sunglasses  over with a car.,object_high,NA,NA,lower_half,short_filler,How many sunglasses broke?,ran __ over with a car,0.01,M,21
2,5084,cause_effect_prior,"""Typical.""",Eric,NA,M,15,sunglasses,broke,Eric ran  15 sunglasses  over with a car.,object_high,NA,NA,upper_half,short_filler,How many sunglasses broke?,ran __ over with a car,0.02,M,21
2,5084,cause_effect_prior,"""Typical.""",Eric,NA,M,15,sunglasses,broke,Eric ran  15 sunglasses  over with a car.,object_high,NA,NA,all,short_filler,How many sunglasses broke?,ran __ over with a car,1,M,21
2,5966,cause_effect_prior,"""Some of the candles exploded.""",Elizabeth,NA,F,15,candles,exploded,Elizabeth lit  15 candles.,object_low,NA,NA,none,Some,How many candles exploded?,lit __,0.01,M,22
2,5966,cause_effect_prior,"""Some of the candles exploded.""",Elizabeth,NA,F,15,candles,exploded,Elizabeth lit  15 candles.,object_low,NA,NA,lower_half,Some,How many candles exploded?,lit __,0.31,M,22
2,5966,cause_effect_prior,"""Some of the candles exploded.""",Elizabeth,NA,F,15,candles,exploded,Elizabeth lit  15 candles.,object_low,NA,NA,upper_half,Some,How many candles exploded?,lit __,0.42,M,22
2,5966,cause_effect_prior,"""Some of the candles exploded.""",Elizabeth,NA,F,15,candles,exploded,Elizabeth lit  15 candles.,object_low,NA,NA,all,Some,How many candles exploded?,lit __,0.02,M,22
2,9273,cause_effect_prior,"""There are people starving in the world.""",Mark,NA,M,15,sugar cubes,dissolved,Mark put  15 sugar cubes  in a bucket of water.,object_high,NA,NA,none,long_filler,How many sugar cubes dissolved?,put __ in a bucket of water,0,M,23
2,9273,cause_effect_prior,"""There are people starving in the world.""",Mark,NA,M,15,sugar cubes,dissolved,Mark put  15 sugar cubes  in a bucket of water.,object_high,NA,NA,lower_half,long_filler,How many sugar cubes dissolved?,put __ in a bucket of water,0,M,23
2,9273,cause_effect_prior,"""There are people starving in the world.""",Mark,NA,M,15,sugar cubes,dissolved,Mark put  15 sugar cubes  in a bucket of water.,object_high,NA,NA,upper_half,long_filler,How many sugar cubes dissolved?,put __ in a bucket of water,0,M,23
2,9273,cause_effect_prior,"""There are people starving in the world.""",Mark,NA,M,15,sugar cubes,dissolved,Mark put  15 sugar cubes  in a bucket of water.,object_high,NA,NA,all,long_filler,How many sugar cubes dissolved?,put __ in a bucket of water,0.99,M,23
2,10342,cause_effect_prior,"""It&quotechars just fun to throw stuff in the water.""",David,NA,M,15,marbles,sank,David threw  15 marbles  into a pool.,object_high,NA,NA,none,long_filler,How many marbles sank?,threw __ into a pool,0,M,24
2,10342,cause_effect_prior,"""It&quotechars just fun to throw stuff in the water.""",David,NA,M,15,marbles,sank,David threw  15 marbles  into a pool.,object_high,NA,NA,lower_half,long_filler,How many marbles sank?,threw __ into a pool,0,M,24
2,10342,cause_effect_prior,"""It&quotechars just fun to throw stuff in the water.""",David,NA,M,15,marbles,sank,David threw  15 marbles  into a pool.,object_high,NA,NA,upper_half,long_filler,How many marbles sank?,threw __ into a pool,0,M,24
2,10342,cause_effect_prior,"""It&quotechars just fun to throw stuff in the water.""",David,NA,M,15,marbles,sank,David threw  15 marbles  into a pool.,object_high,NA,NA,all,long_filler,How many marbles sank?,threw __ into a pool,0.99,M,24
3,2741,speakerreliability,NA,NA,robot with the blue hat and the buttons,NA,NA,NA,NA,NA,NA,s2_vx,overinformative,NA,NA,NA,NA,s2_vx,NA,3
3,2856,speakerreliability,NA,NA,purple monster with the red hat who&quotechars grinning sideways,NA,NA,NA,NA,NA,NA,s1_v1,overinformative,NA,NA,NA,NA,s2_v2,NA,4
3,8455,speakerreliability,NA,NA,purple monster,NA,NA,NA,NA,NA,NA,sx_v1,underinformative,NA,NA,NA,NA,s2_v1,NA,5
3,2121,speakerreliability,NA,NA,green monster with the scarf and the two big teeth,NA,NA,NA,NA,NA,NA,sx_v2,overinformative,NA,NA,NA,NA,sx_v2,NA,6
3,2346,speakerreliability,NA,NA,robot,NA,NA,NA,NA,NA,NA,s1_vx,underinformative,NA,NA,NA,NA,sx_vx,NA,7
3,7306,speakerreliability,NA,NA,guy with the red hat,NA,NA,NA,NA,NA,NA,s1_v1,underinformative,NA,NA,NA,NA,s1_v1,NA,8
3,11021,cause_effect_prior,"""It&quotechars just fun to throw stuff in the water.""",Nicholas,NA,M,15,cups,sank,Nicholas threw  15 cups  into a pool.,object_mid,NA,NA,none,long_filler,How many cups sank?,threw __ into a pool,0.02,M,10
3,11021,cause_effect_prior,"""It&quotechars just fun to throw stuff in the water.""",Nicholas,NA,M,15,cups,sank,Nicholas threw  15 cups  into a pool.,object_mid,NA,NA,lower_half,long_filler,How many cups sank?,threw __ into a pool,0.02,M,10
3,11021,cause_effect_prior,"""It&quotechars just fun to throw stuff in the water.""",Nicholas,NA,M,15,cups,sank,Nicholas threw  15 cups  into a pool.,object_mid,NA,NA,upper_half,long_filler,How many cups sank?,threw __ into a pool,0.01,M,10
3,11021,cause_effect_prior,"""It&quotechars just fun to throw stuff in the water.""",Nicholas,NA,M,15,cups,sank,Nicholas threw  15 cups  into a pool.,object_mid,NA,NA,all,long_filler,How many cups sank?,threw __ into a pool,0.03,M,10
3,3841,cause_effect_prior,"""As usual.""",Ruth,NA,F,15,cakes,stuck to the wall,Ruth threw  15 cakes  against a wall.,object_mid,NA,NA,none,short_filler,How many cakes stuck to the wall?,threw __ against a wall,0.04,M,11
3,3841,cause_effect_prior,"""As usual.""",Ruth,NA,F,15,cakes,stuck to the wall,Ruth threw  15 cakes  against a wall.,object_mid,NA,NA,lower_half,short_filler,How many cakes stuck to the wall?,threw __ against a wall,0.04,M,11
3,3841,cause_effect_prior,"""As usual.""",Ruth,NA,F,15,cakes,stuck to the wall,Ruth threw  15 cakes  against a wall.,object_mid,NA,NA,upper_half,short_filler,How many cakes stuck to the wall?,threw __ against a wall,0.05,M,11
3,3841,cause_effect_prior,"""As usual.""",Ruth,NA,F,15,cakes,stuck to the wall,Ruth threw  15 cakes  against a wall.,object_mid,NA,NA,all,short_filler,How many cakes stuck to the wall?,threw __ against a wall,0.04,M,11
3,3326,cause_effect_prior,"""Some of the pencils melted.""",Angela,NA,F,15,pencils,melted,Angela left  15 pencils  in the hot sun.,object_low,NA,NA,none,Some,How many pencils melted?,left __ in the hot sun,0.1,M,12
3,3326,cause_effect_prior,"""Some of the pencils melted.""",Angela,NA,F,15,pencils,melted,Angela left  15 pencils  in the hot sun.,object_low,NA,NA,lower_half,Some,How many pencils melted?,left __ in the hot sun,0.1,M,12
3,3326,cause_effect_prior,"""Some of the pencils melted.""",Angela,NA,F,15,pencils,melted,Angela left  15 pencils  in the hot sun.,object_low,NA,NA,upper_half,Some,How many pencils melted?,left __ in the hot sun,0.09,M,12
3,3326,cause_effect_prior,"""Some of the pencils melted.""",Angela,NA,F,15,pencils,melted,Angela left  15 pencils  in the hot sun.,object_low,NA,NA,all,Some,How many pencils melted?,left __ in the hot sun,0.12,M,12
3,2262,cause_effect_prior,"""Some of the candles exploded.""",Timothy,NA,M,15,candles,exploded,Timothy lit  15 candles.,object_low,NA,NA,none,Some,How many candles exploded?,lit __,0.13,M,13
3,2262,cause_effect_prior,"""Some of the candles exploded.""",Timothy,NA,M,15,candles,exploded,Timothy lit  15 candles.,object_low,NA,NA,lower_half,Some,How many candles exploded?,lit __,0.12,M,13
3,2262,cause_effect_prior,"""Some of the candles exploded.""",Timothy,NA,M,15,candles,exploded,Timothy lit  15 candles.,object_low,NA,NA,upper_half,Some,How many candles exploded?,lit __,0.12,M,13
3,2262,cause_effect_prior,"""Some of the candles exploded.""",Timothy,NA,M,15,candles,exploded,Timothy lit  15 candles.,object_low,NA,NA,all,Some,How many candles exploded?,lit __,0.13,M,13
3,14326,cause_effect_prior,"""Some of the pancakes landed flat.""",Richard,NA,M,15,pancakes,landed flat,Richard tossed  15 pancakes.,object_mid,NA,NA,none,Some,How many pancakes landed flat?,tossed __,0,M,14
3,14326,cause_effect_prior,"""Some of the pancakes landed flat.""",Richard,NA,M,15,pancakes,landed flat,Richard tossed  15 pancakes.,object_mid,NA,NA,lower_half,Some,How many pancakes landed flat?,tossed __,1,M,14
3,14326,cause_effect_prior,"""Some of the pancakes landed flat.""",Richard,NA,M,15,pancakes,landed flat,Richard tossed  15 pancakes.,object_mid,NA,NA,upper_half,Some,How many pancakes landed flat?,tossed __,0,M,14
3,14326,cause_effect_prior,"""Some of the pancakes landed flat.""",Richard,NA,M,15,pancakes,landed flat,Richard tossed  15 pancakes.,object_mid,NA,NA,all,Some,How many pancakes landed flat?,tossed __,0,M,14
3,10328,cause_effect_prior,"""Some of the banana peels decomposed.""",David,NA,M,15,banana peels,decomposed,David put  15 banana peels  in a compost pile for a month.,object_high,NA,NA,none,Some,How many banana peels decomposed?,put __ in a compost pile for a month,0.02,M,15
3,10328,cause_effect_prior,"""Some of the banana peels decomposed.""",David,NA,M,15,banana peels,decomposed,David put  15 banana peels  in a compost pile for a month.,object_high,NA,NA,lower_half,Some,How many banana peels decomposed?,put __ in a compost pile for a month,0.99,M,15
3,10328,cause_effect_prior,"""Some of the banana peels decomposed.""",David,NA,M,15,banana peels,decomposed,David put  15 banana peels  in a compost pile for a month.,object_high,NA,NA,upper_half,Some,How many banana peels decomposed?,put __ in a compost pile for a month,0.02,M,15
3,10328,cause_effect_prior,"""Some of the banana peels decomposed.""",David,NA,M,15,banana peels,decomposed,David put  15 banana peels  in a compost pile for a month.,object_high,NA,NA,all,Some,How many banana peels decomposed?,put __ in a compost pile for a month,0,M,15
3,5182,cause_effect_prior,"""None of the shelves fell down.""",Frank,NA,M,15,shelves,fell down,Frank punched  15 shelves.,object_low,NA,NA,none,None,How many shelves fell down?,punched __,0.98,M,16
3,5182,cause_effect_prior,"""None of the shelves fell down.""",Frank,NA,M,15,shelves,fell down,Frank punched  15 shelves.,object_low,NA,NA,lower_half,None,How many shelves fell down?,punched __,0.01,M,16
3,5182,cause_effect_prior,"""None of the shelves fell down.""",Frank,NA,M,15,shelves,fell down,Frank punched  15 shelves.,object_low,NA,NA,upper_half,None,How many shelves fell down?,punched __,0.01,M,16
3,5182,cause_effect_prior,"""None of the shelves fell down.""",Frank,NA,M,15,shelves,fell down,Frank punched  15 shelves.,object_low,NA,NA,all,None,How many shelves fell down?,punched __,0.01,M,16
3,11382,cause_effect_prior,"""That reminds me I need to visit my grandma.""",Ryan,NA,M,15,chocolate bars,froze,Ryan put  15 chocolate bars  in the freezer.,object_mid,NA,NA,none,long_filler,How many chocolate bars froze?,put __ in the freezer,0,M,17
3,11382,cause_effect_prior,"""That reminds me I need to visit my grandma.""",Ryan,NA,M,15,chocolate bars,froze,Ryan put  15 chocolate bars  in the freezer.,object_mid,NA,NA,lower_half,long_filler,How many chocolate bars froze?,put __ in the freezer,0.01,M,17
3,11382,cause_effect_prior,"""That reminds me I need to visit my grandma.""",Ryan,NA,M,15,chocolate bars,froze,Ryan put  15 chocolate bars  in the freezer.,object_mid,NA,NA,upper_half,long_filler,How many chocolate bars froze?,put __ in the freezer,0.01,M,17
3,11382,cause_effect_prior,"""That reminds me I need to visit my grandma.""",Ryan,NA,M,15,chocolate bars,froze,Ryan put  15 chocolate bars  in the freezer.,object_mid,NA,NA,all,long_filler,How many chocolate bars froze?,put __ in the freezer,1,M,17
3,7473,cause_effect_prior,"""Some of the books ripped.""",Nancy,NA,F,15,books,ripped,Nancy used  15 books  as dog toys.,object_high,NA,NA,none,Some,How many books ripped?,used __ as dog toys,0,M,18
3,7473,cause_effect_prior,"""Some of the books ripped.""",Nancy,NA,F,15,books,ripped,Nancy used  15 books  as dog toys.,object_high,NA,NA,lower_half,Some,How many books ripped?,used __ as dog toys,0.99,M,18
3,7473,cause_effect_prior,"""Some of the books ripped.""",Nancy,NA,F,15,books,ripped,Nancy used  15 books  as dog toys.,object_high,NA,NA,upper_half,Some,How many books ripped?,used __ as dog toys,0,M,18
3,7473,cause_effect_prior,"""Some of the books ripped.""",Nancy,NA,F,15,books,ripped,Nancy used  15 books  as dog toys.,object_high,NA,NA,all,Some,How many books ripped?,used __ as dog toys,0.01,M,18
3,7007,cause_effect_prior,"""Some of the toy cars rolled.""",Benjamin,NA,M,15,toy cars,rolled,Benjamin pushed  15 toy cars.,object_low,NA,NA,none,Some,How many toy cars rolled?,pushed __,0.02,M,19
3,7007,cause_effect_prior,"""Some of the toy cars rolled.""",Benjamin,NA,M,15,toy cars,rolled,Benjamin pushed  15 toy cars.,object_low,NA,NA,lower_half,Some,How many toy cars rolled?,pushed __,0.99,M,19
3,7007,cause_effect_prior,"""Some of the toy cars rolled.""",Benjamin,NA,M,15,toy cars,rolled,Benjamin pushed  15 toy cars.,object_low,NA,NA,upper_half,Some,How many toy cars rolled?,pushed __,0.01,M,19
3,7007,cause_effect_prior,"""Some of the toy cars rolled.""",Benjamin,NA,M,15,toy cars,rolled,Benjamin pushed  15 toy cars.,object_low,NA,NA,all,Some,How many toy cars rolled?,pushed __,0.01,M,19
3,5396,cause_effect_prior,"""Some of the sunglasses broke.""",Lisa,NA,F,15,sunglasses,broke,Lisa ran  15 sunglasses  over with a car.,object_high,NA,NA,none,Some,How many sunglasses broke?,ran __ over with a car,0.02,M,20
3,5396,cause_effect_prior,"""Some of the sunglasses broke.""",Lisa,NA,F,15,sunglasses,broke,Lisa ran  15 sunglasses  over with a car.,object_high,NA,NA,lower_half,Some,How many sunglasses broke?,ran __ over with a car,0.95,M,20
3,5396,cause_effect_prior,"""Some of the sunglasses broke.""",Lisa,NA,F,15,sunglasses,broke,Lisa ran  15 sunglasses  over with a car.,object_high,NA,NA,upper_half,Some,How many sunglasses broke?,ran __ over with a car,0.01,M,20
3,5396,cause_effect_prior,"""Some of the sunglasses broke.""",Lisa,NA,F,15,sunglasses,broke,Lisa ran  15 sunglasses  over with a car.,object_high,NA,NA,all,Some,How many sunglasses broke?,ran __ over with a car,0.02,M,20
3,12759,cause_effect_prior,"""All of the hats blew away.""",Brian,NA,M,15,hats,blew away,Brian left  15 hats  on a table on a windy day.,object_mid,NA,NA,none,All,How many hats blew away?,left __ on a table on a windy day,0.02,M,21
3,12759,cause_effect_prior,"""All of the hats blew away.""",Brian,NA,M,15,hats,blew away,Brian left  15 hats  on a table on a windy day.,object_mid,NA,NA,lower_half,All,How many hats blew away?,left __ on a table on a windy day,0.04,M,21
3,12759,cause_effect_prior,"""All of the hats blew away.""",Brian,NA,M,15,hats,blew away,Brian left  15 hats  on a table on a windy day.,object_mid,NA,NA,upper_half,All,How many hats blew away?,left __ on a table on a windy day,0.02,M,21
3,12759,cause_effect_prior,"""All of the hats blew away.""",Brian,NA,M,15,hats,blew away,Brian left  15 hats  on a table on a windy day.,object_mid,NA,NA,all,All,How many hats blew away?,left __ on a table on a windy day,0.98,M,21
3,10163,cause_effect_prior,"""None of the butterflies ate the seeds.""",Samuel,NA,M,15,butterflies,ate the seeds,Samuel left seeds out for  15 butterflies.,object_mid,NA,NA,none,None,How many butterflies ate the seeds?,left seeds out for __,0.99,M,22
3,10163,cause_effect_prior,"""None of the butterflies ate the seeds.""",Samuel,NA,M,15,butterflies,ate the seeds,Samuel left seeds out for  15 butterflies.,object_mid,NA,NA,lower_half,None,How many butterflies ate the seeds?,left seeds out for __,0,M,22
3,10163,cause_effect_prior,"""None of the butterflies ate the seeds.""",Samuel,NA,M,15,butterflies,ate the seeds,Samuel left seeds out for  15 butterflies.,object_mid,NA,NA,upper_half,None,How many butterflies ate the seeds?,left seeds out for __,0.01,M,22
3,10163,cause_effect_prior,"""None of the butterflies ate the seeds.""",Samuel,NA,M,15,butterflies,ate the seeds,Samuel left seeds out for  15 butterflies.,object_mid,NA,NA,all,None,How many butterflies ate the seeds?,left seeds out for __,0.01,M,22
3,6983,cause_effect_prior,"""All of the rocks burnt.""",Rebecca,NA,F,15,rocks,burnt,Rebecca threw  15 rocks  into a fire.,object_low,NA,NA,none,All,How many rocks burnt?,threw __ into a fire,0.01,M,23
3,6983,cause_effect_prior,"""All of the rocks burnt.""",Rebecca,NA,F,15,rocks,burnt,Rebecca threw  15 rocks  into a fire.,object_low,NA,NA,lower_half,All,How many rocks burnt?,threw __ into a fire,0.02,M,23
3,6983,cause_effect_prior,"""All of the rocks burnt.""",Rebecca,NA,F,15,rocks,burnt,Rebecca threw  15 rocks  into a fire.,object_low,NA,NA,upper_half,All,How many rocks burnt?,threw __ into a fire,0.02,M,23
3,6983,cause_effect_prior,"""All of the rocks burnt.""",Rebecca,NA,F,15,rocks,burnt,Rebecca threw  15 rocks  into a fire.,object_low,NA,NA,all,All,How many rocks burnt?,threw __ into a fire,0.99,M,23
3,8534,cause_effect_prior,"""Pretty normal.""",Jeffrey,NA,M,15,oreos,dissolved,Jeffrey put  15 oreos  in a bucket of water.,object_mid,NA,NA,none,short_filler,How many oreos dissolved?,put __ in a bucket of water,0.45,M,24
3,8534,cause_effect_prior,"""Pretty normal.""",Jeffrey,NA,M,15,oreos,dissolved,Jeffrey put  15 oreos  in a bucket of water.,object_mid,NA,NA,lower_half,short_filler,How many oreos dissolved?,put __ in a bucket of water,0.48,M,24
3,8534,cause_effect_prior,"""Pretty normal.""",Jeffrey,NA,M,15,oreos,dissolved,Jeffrey put  15 oreos  in a bucket of water.,object_mid,NA,NA,upper_half,short_filler,How many oreos dissolved?,put __ in a bucket of water,0.46,M,24
3,8534,cause_effect_prior,"""Pretty normal.""",Jeffrey,NA,M,15,oreos,dissolved,Jeffrey put  15 oreos  in a bucket of water.,object_mid,NA,NA,all,short_filler,How many oreos dissolved?,put __ in a bucket of water,0.46,M,24
4,5892,speakerreliability,NA,NA,robot,NA,NA,NA,NA,NA,NA,s1_vx,underinformative,NA,NA,NA,NA,sx_vx,NA,3
4,3729,speakerreliability,NA,NA,green monster with the scarf and the two big teeth,NA,NA,NA,NA,NA,NA,sx_v2,overinformative,NA,NA,NA,NA,sx_v2,NA,4
4,4182,speakerreliability,NA,NA,purple monster with the red hat who&quotechars grinning sideways,NA,NA,NA,NA,NA,NA,s1_v1,overinformative,NA,NA,NA,NA,s1_v1,NA,5
4,2480,speakerreliability,NA,NA,robot with the blue hat and the buttons,NA,NA,NA,NA,NA,NA,s2_vx,overinformative,NA,NA,NA,NA,s2_vx,NA,6
4,4687,speakerreliability,NA,NA,guy with the red hat,NA,NA,NA,NA,NA,NA,s1_v1,underinformative,NA,NA,NA,NA,s1_v1,NA,7
4,2616,speakerreliability,NA,NA,purple monster,NA,NA,NA,NA,NA,NA,sx_v1,underinformative,NA,NA,NA,NA,sx_v1,NA,8
4,15342,cause_effect_prior,"""Some of the ice cubes melted.""",Raymond,NA,M,15,ice cubes,melted,Raymond left  15 ice cubes  in the hot sun.,object_high,NA,NA,none,Some,How many ice cubes melted?,left __ in the hot sun,0,M,10
4,15342,cause_effect_prior,"""Some of the ice cubes melted.""",Raymond,NA,M,15,ice cubes,melted,Raymond left  15 ice cubes  in the hot sun.,object_high,NA,NA,lower_half,Some,How many ice cubes melted?,left __ in the hot sun,0.64,M,10
4,15342,cause_effect_prior,"""Some of the ice cubes melted.""",Raymond,NA,M,15,ice cubes,melted,Raymond left  15 ice cubes  in the hot sun.,object_high,NA,NA,upper_half,Some,How many ice cubes melted?,left __ in the hot sun,0.67,M,10
4,15342,cause_effect_prior,"""Some of the ice cubes melted.""",Raymond,NA,M,15,ice cubes,melted,Raymond left  15 ice cubes  in the hot sun.,object_high,NA,NA,all,Some,How many ice cubes melted?,left __ in the hot sun,0.32,M,10
4,6479,cause_effect_prior,"""Some of the shopping carts rolled.""",Larry,NA,M,15,shopping carts,rolled,Larry pushed  15 shopping carts.,object_mid,NA,NA,none,Some,How many shopping carts rolled?,pushed __,0,M,11
4,6479,cause_effect_prior,"""Some of the shopping carts rolled.""",Larry,NA,M,15,shopping carts,rolled,Larry pushed  15 shopping carts.,object_mid,NA,NA,lower_half,Some,How many shopping carts rolled?,pushed __,0.63,M,11
4,6479,cause_effect_prior,"""Some of the shopping carts rolled.""",Larry,NA,M,15,shopping carts,rolled,Larry pushed  15 shopping carts.,object_mid,NA,NA,upper_half,Some,How many shopping carts rolled?,pushed __,0.66,M,11
4,6479,cause_effect_prior,"""Some of the shopping carts rolled.""",Larry,NA,M,15,shopping carts,rolled,Larry pushed  15 shopping carts.,object_mid,NA,NA,all,Some,How many shopping carts rolled?,pushed __,0.21,M,11
4,7471,cause_effect_prior,"""Some of the sugar cubes dissolved.""",Michelle,NA,F,15,sugar cubes,dissolved,Michelle put  15 sugar cubes  in a bucket of water.,object_high,NA,NA,none,Some,How many sugar cubes dissolved?,put __ in a bucket of water,0,M,12
4,7471,cause_effect_prior,"""Some of the sugar cubes dissolved.""",Michelle,NA,F,15,sugar cubes,dissolved,Michelle put  15 sugar cubes  in a bucket of water.,object_high,NA,NA,lower_half,Some,How many sugar cubes dissolved?,put __ in a bucket of water,0.64,M,12
4,7471,cause_effect_prior,"""Some of the sugar cubes dissolved.""",Michelle,NA,F,15,sugar cubes,dissolved,Michelle put  15 sugar cubes  in a bucket of water.,object_high,NA,NA,upper_half,Some,How many sugar cubes dissolved?,put __ in a bucket of water,0.67,M,12
4,7471,cause_effect_prior,"""Some of the sugar cubes dissolved.""",Michelle,NA,F,15,sugar cubes,dissolved,Michelle put  15 sugar cubes  in a bucket of water.,object_high,NA,NA,all,Some,How many sugar cubes dissolved?,put __ in a bucket of water,0.29,M,12
4,9783,cause_effect_prior,"""None of the butterflies ate the seeds.""",Julie,NA,F,15,butterflies,ate the seeds,Julie left seeds out for  15 butterflies.,object_mid,NA,NA,none,None,How many butterflies ate the seeds?,left seeds out for __,1,M,13
4,9783,cause_effect_prior,"""None of the butterflies ate the seeds.""",Julie,NA,F,15,butterflies,ate the seeds,Julie left seeds out for  15 butterflies.,object_mid,NA,NA,lower_half,None,How many butterflies ate the seeds?,left seeds out for __,0.01,M,13
4,9783,cause_effect_prior,"""None of the butterflies ate the seeds.""",Julie,NA,F,15,butterflies,ate the seeds,Julie left seeds out for  15 butterflies.,object_mid,NA,NA,upper_half,None,How many butterflies ate the seeds?,left seeds out for __,0.01,M,13
4,9783,cause_effect_prior,"""None of the butterflies ate the seeds.""",Julie,NA,F,15,butterflies,ate the seeds,Julie left seeds out for  15 butterflies.,object_mid,NA,NA,all,None,How many butterflies ate the seeds?,left seeds out for __,0.01,M,13
4,15543,cause_effect_prior,"""Some of the coins landed flat.""",Kimberly,NA,F,15,coins,landed flat,Kimberly tossed  15 coins.,object_high,NA,NA,none,Some,How many coins landed flat?,tossed __,0,M,14
4,15543,cause_effect_prior,"""Some of the coins landed flat.""",Kimberly,NA,F,15,coins,landed flat,Kimberly tossed  15 coins.,object_high,NA,NA,lower_half,Some,How many coins landed flat?,tossed __,0.36,M,14
4,15543,cause_effect_prior,"""Some of the coins landed flat.""",Kimberly,NA,F,15,coins,landed flat,Kimberly tossed  15 coins.,object_high,NA,NA,upper_half,Some,How many coins landed flat?,tossed __,0.74,M,14
4,15543,cause_effect_prior,"""Some of the coins landed flat.""",Kimberly,NA,F,15,coins,landed flat,Kimberly tossed  15 coins.,object_high,NA,NA,all,Some,How many coins landed flat?,tossed __,0.91,M,14
4,10330,cause_effect_prior,"""All of the block towers fell down.""",Janet,NA,F,15,block towers,fell down,Janet punched  15 block towers.,object_mid,NA,NA,none,All,How many block towers fell down?,punched __,0,M,15
4,10330,cause_effect_prior,"""All of the block towers fell down.""",Janet,NA,F,15,block towers,fell down,Janet punched  15 block towers.,object_mid,NA,NA,lower_half,All,How many block towers fell down?,punched __,0,M,15
4,10330,cause_effect_prior,"""All of the block towers fell down.""",Janet,NA,F,15,block towers,fell down,Janet punched  15 block towers.,object_mid,NA,NA,upper_half,All,How many block towers fell down?,punched __,0.14,M,15
4,10330,cause_effect_prior,"""All of the block towers fell down.""",Janet,NA,F,15,block towers,fell down,Janet punched  15 block towers.,object_mid,NA,NA,all,All,How many block towers fell down?,punched __,1,M,15
4,10876,cause_effect_prior,"""Nothing surprising there.""",Carol,NA,F,15,balloons,sank,Carol threw  15 balloons  into a pool.,object_low,NA,NA,none,short_filler,How many balloons sank?,threw __ into a pool,1,M,16
4,10878,cause_effect_prior,"""Nothing surprising there.""",Carol,NA,F,15,balloons,sank,Carol threw  15 balloons  into a pool.,object_low,NA,NA,lower_half,short_filler,How many balloons sank?,threw __ into a pool,0.01,M,16
4,10878,cause_effect_prior,"""Nothing surprising there.""",Carol,NA,F,15,balloons,sank,Carol threw  15 balloons  into a pool.,object_low,NA,NA,upper_half,short_filler,How many balloons sank?,threw __ into a pool,0.03,M,16
4,10878,cause_effect_prior,"""Nothing surprising there.""",Carol,NA,F,15,balloons,sank,Carol threw  15 balloons  into a pool.,object_low,NA,NA,all,short_filler,How many balloons sank?,threw __ into a pool,0.02,M,16
4,11453,cause_effect_prior,"""Some of the boxes broke.""",Jeffrey,NA,M,15,boxes,broke,Jeffrey ran  15 boxes  over with a car.,object_mid,NA,NA,none,Some,How many boxes broke?,ran __ over with a car,0,M,17
4,11453,cause_effect_prior,"""Some of the boxes broke.""",Jeffrey,NA,M,15,boxes,broke,Jeffrey ran  15 boxes  over with a car.,object_mid,NA,NA,lower_half,Some,How many boxes broke?,ran __ over with a car,0.56,M,17
4,11453,cause_effect_prior,"""Some of the boxes broke.""",Jeffrey,NA,M,15,boxes,broke,Jeffrey ran  15 boxes  over with a car.,object_mid,NA,NA,upper_half,Some,How many boxes broke?,ran __ over with a car,0.65,M,17
4,11453,cause_effect_prior,"""Some of the boxes broke.""",Jeffrey,NA,M,15,boxes,broke,Jeffrey ran  15 boxes  over with a car.,object_mid,NA,NA,all,Some,How many boxes broke?,ran __ over with a car,0.14,M,17
4,12111,cause_effect_prior,"""None of the bottles of hand soap froze.""",Shirley,NA,F,15,bottles of hand soap,froze,Shirley put  15 bottles of hand soap  in the freezer.,object_low,NA,NA,none,None,How many bottles of hand soap froze?,put __ in the freezer,1,M,18
4,12111,cause_effect_prior,"""None of the bottles of hand soap froze.""",Shirley,NA,F,15,bottles of hand soap,froze,Shirley put  15 bottles of hand soap  in the freezer.,object_low,NA,NA,lower_half,None,How many bottles of hand soap froze?,put __ in the freezer,0.05,M,18
4,12111,cause_effect_prior,"""None of the bottles of hand soap froze.""",Shirley,NA,F,15,bottles of hand soap,froze,Shirley put  15 bottles of hand soap  in the freezer.,object_low,NA,NA,upper_half,None,How many bottles of hand soap froze?,put __ in the freezer,0.05,M,18
4,12111,cause_effect_prior,"""None of the bottles of hand soap froze.""",Shirley,NA,F,15,bottles of hand soap,froze,Shirley put  15 bottles of hand soap  in the freezer.,object_low,NA,NA,all,None,How many bottles of hand soap froze?,put __ in the freezer,0,M,18
4,8439,cause_effect_prior,"""Some of the fireworks exploded.""",Nicole,NA,F,15,fireworks,exploded,Nicole lit  15 fireworks.,object_mid,NA,NA,none,Some,How many fireworks exploded?,lit __,0,M,19
4,8439,cause_effect_prior,"""Some of the fireworks exploded.""",Nicole,NA,F,15,fireworks,exploded,Nicole lit  15 fireworks.,object_mid,NA,NA,lower_half,Some,How many fireworks exploded?,lit __,0.33,M,19
4,8439,cause_effect_prior,"""Some of the fireworks exploded.""",Nicole,NA,F,15,fireworks,exploded,Nicole lit  15 fireworks.,object_mid,NA,NA,upper_half,Some,How many fireworks exploded?,lit __,0.58,M,19
4,8439,cause_effect_prior,"""Some of the fireworks exploded.""",Nicole,NA,F,15,fireworks,exploded,Nicole lit  15 fireworks.,object_mid,NA,NA,all,Some,How many fireworks exploded?,lit __,0.67,M,19
4,14720,cause_effect_prior,"""What a great way to reduce trash.""",Emily,NA,F,15,banana peels,decomposed,Emily put  15 banana peels  in a compost pile for a month.,object_high,NA,NA,none,long_filler,How many banana peels decomposed?,put __ in a compost pile for a month,0,M,20
4,14720,cause_effect_prior,"""What a great way to reduce trash.""",Emily,NA,F,15,banana peels,decomposed,Emily put  15 banana peels  in a compost pile for a month.,object_high,NA,NA,lower_half,long_filler,How many banana peels decomposed?,put __ in a compost pile for a month,0.37,M,20
4,14720,cause_effect_prior,"""What a great way to reduce trash.""",Emily,NA,F,15,banana peels,decomposed,Emily put  15 banana peels  in a compost pile for a month.,object_high,NA,NA,upper_half,long_filler,How many banana peels decomposed?,put __ in a compost pile for a month,0.63,M,20
4,14720,cause_effect_prior,"""What a great way to reduce trash.""",Emily,NA,F,15,banana peels,decomposed,Emily put  15 banana peels  in a compost pile for a month.,object_high,NA,NA,all,long_filler,How many banana peels decomposed?,put __ in a compost pile for a month,0.8,M,20
4,8248,cause_effect_prior,"""Some of the books burnt.""",Melissa,NA,F,15,books,burnt,Melissa threw  15 books  into a fire.,object_mid,NA,NA,none,Some,How many books burnt?,threw __ into a fire,0.06,M,21
4,8248,cause_effect_prior,"""Some of the books burnt.""",Melissa,NA,F,15,books,burnt,Melissa threw  15 books  into a fire.,object_mid,NA,NA,lower_half,Some,How many books burnt?,threw __ into a fire,0.38,M,21
4,8248,cause_effect_prior,"""Some of the books burnt.""",Melissa,NA,F,15,books,burnt,Melissa threw  15 books  into a fire.,object_mid,NA,NA,upper_half,Some,How many books burnt?,threw __ into a fire,0.74,M,21
4,8248,cause_effect_prior,"""Some of the books burnt.""",Melissa,NA,F,15,books,burnt,Melissa threw  15 books  into a fire.,object_mid,NA,NA,all,Some,How many books burnt?,threw __ into a fire,0.82,M,21
4,8104,cause_effect_prior,"""All of the hats blew away.""",Nancy,NA,F,15,hats,blew away,Nancy left  15 hats  on a table on a windy day.,object_mid,NA,NA,none,All,How many hats blew away?,left __ on a table on a windy day,0.01,M,22
4,8104,cause_effect_prior,"""All of the hats blew away.""",Nancy,NA,F,15,hats,blew away,Nancy left  15 hats  on a table on a windy day.,object_mid,NA,NA,lower_half,All,How many hats blew away?,left __ on a table on a windy day,0,M,22
4,8104,cause_effect_prior,"""All of the hats blew away.""",Nancy,NA,F,15,hats,blew away,Nancy left  15 hats  on a table on a windy day.,object_mid,NA,NA,upper_half,All,How many hats blew away?,left __ on a table on a windy day,0.09,M,22
4,8104,cause_effect_prior,"""All of the hats blew away.""",Nancy,NA,F,15,hats,blew away,Nancy left  15 hats  on a table on a windy day.,object_mid,NA,NA,all,All,How many hats blew away?,left __ on a table on a windy day,0.96,M,22
4,8944,cause_effect_prior,"""What a strange thing to do.""",Jonathan,NA,M,15,cakes,stuck to the wall,Jonathan threw  15 cakes  against a wall.,object_mid,NA,NA,none,long_filler,How many cakes stuck to the wall?,threw __ against a wall,0.49,M,23
4,8944,cause_effect_prior,"""What a strange thing to do.""",Jonathan,NA,M,15,cakes,stuck to the wall,Jonathan threw  15 cakes  against a wall.,object_mid,NA,NA,lower_half,long_filler,How many cakes stuck to the wall?,threw __ against a wall,0.51,M,23
4,8944,cause_effect_prior,"""What a strange thing to do.""",Jonathan,NA,M,15,cakes,stuck to the wall,Jonathan threw  15 cakes  against a wall.,object_mid,NA,NA,upper_half,long_filler,How many cakes stuck to the wall?,threw __ against a wall,0.51,M,23
4,8944,cause_effect_prior,"""What a strange thing to do.""",Jonathan,NA,M,15,cakes,stuck to the wall,Jonathan threw  15 cakes  against a wall.,object_mid,NA,NA,all,long_filler,How many cakes stuck to the wall?,threw __ against a wall,0.51,M,23
4,10560,cause_effect_prior,"""Typical.""",Anthony,NA,M,15,books,ripped,Anthony used  15 books  as dog toys.,object_high,NA,NA,none,short_filler,How many books ripped?,used __ as dog toys,0.47,M,24
4,10560,cause_effect_prior,"""Typical.""",Anthony,NA,M,15,books,ripped,Anthony used  15 books  as dog toys.,object_high,NA,NA,lower_half,short_filler,How many books ripped?,used __ as dog toys,0.48,M,24
4,10560,cause_effect_prior,"""Typical.""",Anthony,NA,M,15,books,ripped,Anthony used  15 books  as dog toys.,object_high,NA,NA,upper_half,short_filler,How many books ripped?,used __ as dog toys,0.47,M,24
4,10560,cause_effect_prior,"""Typical.""",Anthony,NA,M,15,books,ripped,Anthony used  15 books  as dog toys.,object_high,NA,NA,all,short_filler,How many books ripped?,used __ as dog toys,0.48,M,24
5,4520,speakerreliability,NA,NA,guy with the red hat,NA,NA,NA,NA,NA,NA,s1_v1,underinformative,NA,NA,NA,NA,s1_v1,NA,3
5,3615,speakerreliability,NA,NA,robot with the blue hat and the buttons,NA,NA,NA,NA,NA,NA,s2_vx,overinformative,NA,NA,NA,NA,s2_vx,NA,4
5,2433,speakerreliability,NA,NA,robot,NA,NA,NA,NA,NA,NA,s1_vx,underinformative,NA,NA,NA,NA,sx_vx,NA,5
5,2422,speakerreliability,NA,NA,green monster with the scarf and the two big teeth,NA,NA,NA,NA,NA,NA,sx_v2,overinformative,NA,NA,NA,NA,sx_v2,NA,6
5,2369,speakerreliability,NA,NA,purple monster with the red hat who&quotechars grinning sideways,NA,NA,NA,NA,NA,NA,s1_v1,overinformative,NA,NA,NA,NA,s1_v1,NA,7
5,2744,speakerreliability,NA,NA,purple monster,NA,NA,NA,NA,NA,NA,sx_v1,underinformative,NA,NA,NA,NA,sx_v1,NA,8
5,14191,cause_effect_prior,"""All of the shoes ripped.""",Kevin,NA,M,15,shoes,ripped,Kevin used  15 shoes  as dog toys.,object_low,NA,NA,none,All,How many shoes ripped?,used __ as dog toys,0.01,F,10
5,14191,cause_effect_prior,"""All of the shoes ripped.""",Kevin,NA,M,15,shoes,ripped,Kevin used  15 shoes  as dog toys.,object_low,NA,NA,lower_half,All,How many shoes ripped?,used __ as dog toys,0.02,F,10
5,14191,cause_effect_prior,"""All of the shoes ripped.""",Kevin,NA,M,15,shoes,ripped,Kevin used  15 shoes  as dog toys.,object_low,NA,NA,upper_half,All,How many shoes ripped?,used __ as dog toys,0.55,F,10
5,14191,cause_effect_prior,"""All of the shoes ripped.""",Kevin,NA,M,15,shoes,ripped,Kevin used  15 shoes  as dog toys.,object_low,NA,NA,all,All,How many shoes ripped?,used __ as dog toys,0.98,F,10
5,11386,cause_effect_prior,"""Some of the marbles sank.""",Sarah,NA,F,15,marbles,sank,Sarah threw  15 marbles  into a pool.,object_high,NA,NA,none,Some,How many marbles sank?,threw __ into a pool,0.01,F,11
5,11386,cause_effect_prior,"""Some of the marbles sank.""",Sarah,NA,F,15,marbles,sank,Sarah threw  15 marbles  into a pool.,object_high,NA,NA,lower_half,Some,How many marbles sank?,threw __ into a pool,0.66,F,11
5,11386,cause_effect_prior,"""Some of the marbles sank.""",Sarah,NA,F,15,marbles,sank,Sarah threw  15 marbles  into a pool.,object_high,NA,NA,upper_half,Some,How many marbles sank?,threw __ into a pool,0.7,F,11
5,11386,cause_effect_prior,"""Some of the marbles sank.""",Sarah,NA,F,15,marbles,sank,Sarah threw  15 marbles  into a pool.,object_high,NA,NA,all,Some,How many marbles sank?,threw __ into a pool,0.01,F,11
5,10405,cause_effect_prior,"""Some of the hats blew away.""",Frank,NA,M,15,hats,blew away,Frank left  15 hats  on a table on a windy day.,object_mid,NA,NA,none,Some,How many hats blew away?,left __ on a table on a windy day,0,F,12
5,10405,cause_effect_prior,"""Some of the hats blew away.""",Frank,NA,M,15,hats,blew away,Frank left  15 hats  on a table on a windy day.,object_mid,NA,NA,lower_half,Some,How many hats blew away?,left __ on a table on a windy day,0.54,F,12
5,10405,cause_effect_prior,"""Some of the hats blew away.""",Frank,NA,M,15,hats,blew away,Frank left  15 hats  on a table on a windy day.,object_mid,NA,NA,upper_half,Some,How many hats blew away?,left __ on a table on a windy day,0.59,F,12
5,10405,cause_effect_prior,"""Some of the hats blew away.""",Frank,NA,M,15,hats,blew away,Frank left  15 hats  on a table on a windy day.,object_mid,NA,NA,all,Some,How many hats blew away?,left __ on a table on a windy day,0.03,F,12
5,13792,cause_effect_prior,"""It&quotechars a beautiful day.""",Laura,NA,F,15,crayons,melted,Laura left  15 crayons  in the hot sun.,object_mid,NA,NA,none,long_filler,How many crayons melted?,left __ in the hot sun,0.47,F,13
5,13792,cause_effect_prior,"""It&quotechars a beautiful day.""",Laura,NA,F,15,crayons,melted,Laura left  15 crayons  in the hot sun.,object_mid,NA,NA,lower_half,long_filler,How many crayons melted?,left __ in the hot sun,0.47,F,13
5,13792,cause_effect_prior,"""It&quotechars a beautiful day.""",Laura,NA,F,15,crayons,melted,Laura left  15 crayons  in the hot sun.,object_mid,NA,NA,upper_half,long_filler,How many crayons melted?,left __ in the hot sun,0.48,F,13
5,13792,cause_effect_prior,"""It&quotechars a beautiful day.""",Laura,NA,F,15,crayons,melted,Laura left  15 crayons  in the hot sun.,object_mid,NA,NA,all,long_filler,How many crayons melted?,left __ in the hot sun,0.48,F,13
5,9257,cause_effect_prior,"""None of the shelves fell down.""",Shirley,NA,F,15,shelves,fell down,Shirley punched  15 shelves.,object_low,NA,NA,none,None,How many shelves fell down?,punched __,0.98,F,14
5,9257,cause_effect_prior,"""None of the shelves fell down.""",Shirley,NA,F,15,shelves,fell down,Shirley punched  15 shelves.,object_low,NA,NA,lower_half,None,How many shelves fell down?,punched __,0.01,F,14
5,9257,cause_effect_prior,"""None of the shelves fell down.""",Shirley,NA,F,15,shelves,fell down,Shirley punched  15 shelves.,object_low,NA,NA,upper_half,None,How many shelves fell down?,punched __,0.01,F,14
5,9257,cause_effect_prior,"""None of the shelves fell down.""",Shirley,NA,F,15,shelves,fell down,Shirley punched  15 shelves.,object_low,NA,NA,all,None,How many shelves fell down?,punched __,0.01,F,14
5,6494,cause_effect_prior,"""Some of the notebooks landed flat.""",Karen,NA,F,15,notebooks,landed flat,Karen tossed  15 notebooks.,object_low,NA,NA,none,Some,How many notebooks landed flat?,tossed __,0.01,F,15
5,6494,cause_effect_prior,"""Some of the notebooks landed flat.""",Karen,NA,F,15,notebooks,landed flat,Karen tossed  15 notebooks.,object_low,NA,NA,lower_half,Some,How many notebooks landed flat?,tossed __,0.55,F,15
5,6494,cause_effect_prior,"""Some of the notebooks landed flat.""",Karen,NA,F,15,notebooks,landed flat,Karen tossed  15 notebooks.,object_low,NA,NA,upper_half,Some,How many notebooks landed flat?,tossed __,0.56,F,15
5,6494,cause_effect_prior,"""Some of the notebooks landed flat.""",Karen,NA,F,15,notebooks,landed flat,Karen tossed  15 notebooks.,object_low,NA,NA,all,Some,How many notebooks landed flat?,tossed __,0.02,F,15
5,8963,cause_effect_prior,"""Some of the banana peels decomposed.""",Linda,NA,F,15,banana peels,decomposed,Linda put  15 banana peels  in a compost pile for a month.,object_high,NA,NA,none,Some,How many banana peels decomposed?,put __ in a compost pile for a month,0.02,F,16
5,8963,cause_effect_prior,"""Some of the banana peels decomposed.""",Linda,NA,F,15,banana peels,decomposed,Linda put  15 banana peels  in a compost pile for a month.,object_high,NA,NA,lower_half,Some,How many banana peels decomposed?,put __ in a compost pile for a month,0.51,F,16
5,8963,cause_effect_prior,"""Some of the banana peels decomposed.""",Linda,NA,F,15,banana peels,decomposed,Linda put  15 banana peels  in a compost pile for a month.,object_high,NA,NA,upper_half,Some,How many banana peels decomposed?,put __ in a compost pile for a month,0.58,F,16
5,8963,cause_effect_prior,"""Some of the banana peels decomposed.""",Linda,NA,F,15,banana peels,decomposed,Linda put  15 banana peels  in a compost pile for a month.,object_high,NA,NA,all,Some,How many banana peels decomposed?,put __ in a compost pile for a month,0,F,16
5,6818,cause_effect_prior,"""All of the sunglasses broke.""",Ryan,NA,M,15,sunglasses,broke,Ryan ran  15 sunglasses  over with a car.,object_high,NA,NA,none,All,How many sunglasses broke?,ran __ over with a car,0,F,17
5,6818,cause_effect_prior,"""All of the sunglasses broke.""",Ryan,NA,M,15,sunglasses,broke,Ryan ran  15 sunglasses  over with a car.,object_high,NA,NA,lower_half,All,How many sunglasses broke?,ran __ over with a car,0.37,F,17
5,6818,cause_effect_prior,"""All of the sunglasses broke.""",Ryan,NA,M,15,sunglasses,broke,Ryan ran  15 sunglasses  over with a car.,object_high,NA,NA,upper_half,All,How many sunglasses broke?,ran __ over with a car,0.76,F,17
5,6818,cause_effect_prior,"""All of the sunglasses broke.""",Ryan,NA,M,15,sunglasses,broke,Ryan ran  15 sunglasses  over with a car.,object_high,NA,NA,all,All,How many sunglasses broke?,ran __ over with a car,0.96,F,17
5,7268,cause_effect_prior,"""Some of the chocolate bars froze.""",Susan,NA,F,15,chocolate bars,froze,Susan put  15 chocolate bars  in the freezer.,object_mid,NA,NA,none,Some,How many chocolate bars froze?,put __ in the freezer,0.03,F,18
5,7268,cause_effect_prior,"""Some of the chocolate bars froze.""",Susan,NA,F,15,chocolate bars,froze,Susan put  15 chocolate bars  in the freezer.,object_mid,NA,NA,lower_half,Some,How many chocolate bars froze?,put __ in the freezer,0.51,F,18
5,7268,cause_effect_prior,"""Some of the chocolate bars froze.""",Susan,NA,F,15,chocolate bars,froze,Susan put  15 chocolate bars  in the freezer.,object_mid,NA,NA,upper_half,Some,How many chocolate bars froze?,put __ in the freezer,0.52,F,18
5,7268,cause_effect_prior,"""Some of the chocolate bars froze.""",Susan,NA,F,15,chocolate bars,froze,Susan put  15 chocolate bars  in the freezer.,object_mid,NA,NA,all,Some,How many chocolate bars froze?,put __ in the freezer,0.02,F,18
5,7667,cause_effect_prior,"""Some of the carrots dissolved.""",Jason,NA,M,15,carrots,dissolved,Jason put  15 carrots  in a bucket of water.,object_low,NA,NA,none,Some,How many carrots dissolved?,put __ in a bucket of water,0.01,F,19
5,7667,cause_effect_prior,"""Some of the carrots dissolved.""",Jason,NA,M,15,carrots,dissolved,Jason put  15 carrots  in a bucket of water.,object_low,NA,NA,lower_half,Some,How many carrots dissolved?,put __ in a bucket of water,0.67,F,19
5,7667,cause_effect_prior,"""Some of the carrots dissolved.""",Jason,NA,M,15,carrots,dissolved,Jason put  15 carrots  in a bucket of water.,object_low,NA,NA,upper_half,Some,How many carrots dissolved?,put __ in a bucket of water,0.6,F,19
5,7667,cause_effect_prior,"""Some of the carrots dissolved.""",Jason,NA,M,15,carrots,dissolved,Jason put  15 carrots  in a bucket of water.,object_low,NA,NA,all,Some,How many carrots dissolved?,put __ in a bucket of water,0.01,F,19
5,13217,cause_effect_prior,"""As usual.""",Jeffrey,NA,M,15,birds,ate the seeds,Jeffrey left seeds out for  15 birds.,object_high,NA,NA,none,short_filler,How many birds ate the seeds?,left seeds out for __,0.51,F,20
5,13217,cause_effect_prior,"""As usual.""",Jeffrey,NA,M,15,birds,ate the seeds,Jeffrey left seeds out for  15 birds.,object_high,NA,NA,lower_half,short_filler,How many birds ate the seeds?,left seeds out for __,0.51,F,20
5,13217,cause_effect_prior,"""As usual.""",Jeffrey,NA,M,15,birds,ate the seeds,Jeffrey left seeds out for  15 birds.,object_high,NA,NA,upper_half,short_filler,How many birds ate the seeds?,left seeds out for __,0.51,F,20
5,13217,cause_effect_prior,"""As usual.""",Jeffrey,NA,M,15,birds,ate the seeds,Jeffrey left seeds out for  15 birds.,object_high,NA,NA,all,short_filler,How many birds ate the seeds?,left seeds out for __,0.51,F,20
5,7772,cause_effect_prior,"""None of the matches burnt.""",Michelle,NA,F,15,matches,burnt,Michelle threw  15 matches  into a fire.,object_high,NA,NA,none,None,How many matches burnt?,threw __ into a fire,0.94,F,21
5,7772,cause_effect_prior,"""None of the matches burnt.""",Michelle,NA,F,15,matches,burnt,Michelle threw  15 matches  into a fire.,object_high,NA,NA,lower_half,None,How many matches burnt?,threw __ into a fire,0.23,F,21
5,7772,cause_effect_prior,"""None of the matches burnt.""",Michelle,NA,F,15,matches,burnt,Michelle threw  15 matches  into a fire.,object_high,NA,NA,upper_half,None,How many matches burnt?,threw __ into a fire,0.03,F,21
5,7772,cause_effect_prior,"""None of the matches burnt.""",Michelle,NA,F,15,matches,burnt,Michelle threw  15 matches  into a fire.,object_high,NA,NA,all,None,How many matches burnt?,threw __ into a fire,0.02,F,21
5,12501,cause_effect_prior,"""Pushing stuff is so much fun.""",Carolyn,NA,F,15,shopping carts,rolled,Carolyn pushed  15 shopping carts.,object_mid,NA,NA,none,long_filler,How many shopping carts rolled?,pushed __,0.09,F,22
5,12501,cause_effect_prior,"""Pushing stuff is so much fun.""",Carolyn,NA,F,15,shopping carts,rolled,Carolyn pushed  15 shopping carts.,object_mid,NA,NA,lower_half,long_filler,How many shopping carts rolled?,pushed __,0.52,F,22
5,12501,cause_effect_prior,"""Pushing stuff is so much fun.""",Carolyn,NA,F,15,shopping carts,rolled,Carolyn pushed  15 shopping carts.,object_mid,NA,NA,upper_half,long_filler,How many shopping carts rolled?,pushed __,0.52,F,22
5,12501,cause_effect_prior,"""Pushing stuff is so much fun.""",Carolyn,NA,F,15,shopping carts,rolled,Carolyn pushed  15 shopping carts.,object_mid,NA,NA,all,long_filler,How many shopping carts rolled?,pushed __,0.5,F,22
5,8563,cause_effect_prior,"""Typical.""",Thomas,NA,M,15,candles,exploded,Thomas lit  15 candles.,object_low,NA,NA,none,short_filler,How many candles exploded?,lit __,0.19,F,23
5,8563,cause_effect_prior,"""Typical.""",Thomas,NA,M,15,candles,exploded,Thomas lit  15 candles.,object_low,NA,NA,lower_half,short_filler,How many candles exploded?,lit __,0.5,F,23
5,8563,cause_effect_prior,"""Typical.""",Thomas,NA,M,15,candles,exploded,Thomas lit  15 candles.,object_low,NA,NA,upper_half,short_filler,How many candles exploded?,lit __,0.51,F,23
5,8563,cause_effect_prior,"""Typical.""",Thomas,NA,M,15,candles,exploded,Thomas lit  15 candles.,object_low,NA,NA,all,short_filler,How many candles exploded?,lit __,0.51,F,23
5,8984,cause_effect_prior,"""Some of the cakes stuck to the wall.""",Sharon,NA,F,15,cakes,stuck to the wall,Sharon threw  15 cakes  against a wall.,object_mid,NA,NA,none,Some,How many cakes stuck to the wall?,threw __ against a wall,0.02,F,24
5,8984,cause_effect_prior,"""Some of the cakes stuck to the wall.""",Sharon,NA,F,15,cakes,stuck to the wall,Sharon threw  15 cakes  against a wall.,object_mid,NA,NA,lower_half,Some,How many cakes stuck to the wall?,threw __ against a wall,0.56,F,24
5,8984,cause_effect_prior,"""Some of the cakes stuck to the wall.""",Sharon,NA,F,15,cakes,stuck to the wall,Sharon threw  15 cakes  against a wall.,object_mid,NA,NA,upper_half,Some,How many cakes stuck to the wall?,threw __ against a wall,0.6,F,24
5,8984,cause_effect_prior,"""Some of the cakes stuck to the wall.""",Sharon,NA,F,15,cakes,stuck to the wall,Sharon threw  15 cakes  against a wall.,object_mid,NA,NA,all,Some,How many cakes stuck to the wall?,threw __ against a wall,0.03,F,24
6,2611,speakerreliability,NA,NA,robot,NA,NA,NA,NA,NA,NA,s1_vx,underinformative,NA,NA,NA,NA,sx_vx,NA,3
6,2619,speakerreliability,NA,NA,purple monster,NA,NA,NA,NA,NA,NA,sx_v1,underinformative,NA,NA,NA,NA,sx_v1,NA,4
6,2745,speakerreliability,NA,NA,purple monster with the red hat who&quotechars grinning sideways,NA,NA,NA,NA,NA,NA,s1_v1,overinformative,NA,NA,NA,NA,s1_v1,NA,5
6,2168,speakerreliability,NA,NA,green monster with the scarf and the two big teeth,NA,NA,NA,NA,NA,NA,sx_v2,overinformative,NA,NA,NA,NA,sx_v2,NA,6
6,1664,speakerreliability,NA,NA,robot with the blue hat and the buttons,NA,NA,NA,NA,NA,NA,s2_vx,overinformative,NA,NA,NA,NA,s2_vx,NA,7
6,3567,speakerreliability,NA,NA,guy with the red hat,NA,NA,NA,NA,NA,NA,s1_v1,underinformative,NA,NA,NA,NA,s1_v1,NA,8
6,32150,cause_effect_prior,"""Some of the candles exploded.""",Anthony,NA,M,15,candles,exploded,Anthony lit  15 candles.,object_low,NA,NA,none,Some,How many candles exploded?,lit __,0,F,10
6,32150,cause_effect_prior,"""Some of the candles exploded.""",Anthony,NA,M,15,candles,exploded,Anthony lit  15 candles.,object_low,NA,NA,lower_half,Some,How many candles exploded?,lit __,0.68,F,10
6,32151,cause_effect_prior,"""Some of the candles exploded.""",Anthony,NA,M,15,candles,exploded,Anthony lit  15 candles.,object_low,NA,NA,upper_half,Some,How many candles exploded?,lit __,0.19,F,10
6,32151,cause_effect_prior,"""Some of the candles exploded.""",Anthony,NA,M,15,candles,exploded,Anthony lit  15 candles.,object_low,NA,NA,all,Some,How many candles exploded?,lit __,0,F,10
6,17063,cause_effect_prior,"""Some of the wheelchairs rolled.""",Jacob,NA,M,15,wheelchairs,rolled,Jacob pushed  15 wheelchairs.,object_high,NA,NA,none,Some,How many wheelchairs rolled?,pushed __,0.01,F,11
6,17063,cause_effect_prior,"""Some of the wheelchairs rolled.""",Jacob,NA,M,15,wheelchairs,rolled,Jacob pushed  15 wheelchairs.,object_high,NA,NA,lower_half,Some,How many wheelchairs rolled?,pushed __,0.7,F,11
6,17063,cause_effect_prior,"""Some of the wheelchairs rolled.""",Jacob,NA,M,15,wheelchairs,rolled,Jacob pushed  15 wheelchairs.,object_high,NA,NA,upper_half,Some,How many wheelchairs rolled?,pushed __,0.26,F,11
6,17063,cause_effect_prior,"""Some of the wheelchairs rolled.""",Jacob,NA,M,15,wheelchairs,rolled,Jacob pushed  15 wheelchairs.,object_high,NA,NA,all,Some,How many wheelchairs rolled?,pushed __,0,F,11
6,11017,cause_effect_prior,"""All of the berries froze.""",Benjamin,NA,M,15,berries,froze,Benjamin put  15 berries  in the freezer.,object_high,NA,NA,none,All,How many berries froze?,put __ in the freezer,0,F,12
6,11017,cause_effect_prior,"""All of the berries froze.""",Benjamin,NA,M,15,berries,froze,Benjamin put  15 berries  in the freezer.,object_high,NA,NA,lower_half,All,How many berries froze?,put __ in the freezer,0,F,12
6,11017,cause_effect_prior,"""All of the berries froze.""",Benjamin,NA,M,15,berries,froze,Benjamin put  15 berries  in the freezer.,object_high,NA,NA,upper_half,All,How many berries froze?,put __ in the freezer,0,F,12
6,11017,cause_effect_prior,"""All of the berries froze.""",Benjamin,NA,M,15,berries,froze,Benjamin put  15 berries  in the freezer.,object_high,NA,NA,all,All,How many berries froze?,put __ in the freezer,1,F,12
6,12175,cause_effect_prior,"""None of the butterflies ate the seeds.""",Jack,NA,M,15,butterflies,ate the seeds,Jack left seeds out for  15 butterflies.,object_mid,NA,NA,none,None,How many butterflies ate the seeds?,left seeds out for __,1,F,13
6,12175,cause_effect_prior,"""None of the butterflies ate the seeds.""",Jack,NA,M,15,butterflies,ate the seeds,Jack left seeds out for  15 butterflies.,object_mid,NA,NA,lower_half,None,How many butterflies ate the seeds?,left seeds out for __,0,F,13
6,12175,cause_effect_prior,"""None of the butterflies ate the seeds.""",Jack,NA,M,15,butterflies,ate the seeds,Jack left seeds out for  15 butterflies.,object_mid,NA,NA,upper_half,None,How many butterflies ate the seeds?,left seeds out for __,0,F,13
6,12175,cause_effect_prior,"""None of the butterflies ate the seeds.""",Jack,NA,M,15,butterflies,ate the seeds,Jack left seeds out for  15 butterflies.,object_mid,NA,NA,all,None,How many butterflies ate the seeds?,left seeds out for __,0,F,13
6,9831,cause_effect_prior,"""Some of the oreos dissolved.""",Jason,NA,M,15,oreos,dissolved,Jason put  15 oreos  in a bucket of water.,object_mid,NA,NA,none,Some,How many oreos dissolved?,put __ in a bucket of water,0,F,14
6,9831,cause_effect_prior,"""Some of the oreos dissolved.""",Jason,NA,M,15,oreos,dissolved,Jason put  15 oreos  in a bucket of water.,object_mid,NA,NA,lower_half,Some,How many oreos dissolved?,put __ in a bucket of water,0.75,F,14
6,9831,cause_effect_prior,"""Some of the oreos dissolved.""",Jason,NA,M,15,oreos,dissolved,Jason put  15 oreos  in a bucket of water.,object_mid,NA,NA,upper_half,Some,How many oreos dissolved?,put __ in a bucket of water,0.31,F,14
6,9831,cause_effect_prior,"""Some of the oreos dissolved.""",Jason,NA,M,15,oreos,dissolved,Jason put  15 oreos  in a bucket of water.,object_mid,NA,NA,all,Some,How many oreos dissolved?,put __ in a bucket of water,0,F,14
6,18688,cause_effect_prior,"""I just wish the weather was better.""",Elizabeth,NA,F,15,napkins,blew away,Elizabeth left  15 napkins  on a table on a windy day.,object_high,NA,NA,none,long_filler,How many napkins blew away?,left __ on a table on a windy day,0,F,15
6,18688,cause_effect_prior,"""I just wish the weather was better.""",Elizabeth,NA,F,15,napkins,blew away,Elizabeth left  15 napkins  on a table on a windy day.,object_high,NA,NA,lower_half,long_filler,How many napkins blew away?,left __ on a table on a windy day,0.91,F,15
6,18688,cause_effect_prior,"""I just wish the weather was better.""",Elizabeth,NA,F,15,napkins,blew away,Elizabeth left  15 napkins  on a table on a windy day.,object_high,NA,NA,upper_half,long_filler,How many napkins blew away?,left __ on a table on a windy day,0.15,F,15
6,18688,cause_effect_prior,"""I just wish the weather was better.""",Elizabeth,NA,F,15,napkins,blew away,Elizabeth left  15 napkins  on a table on a windy day.,object_high,NA,NA,all,long_filler,How many napkins blew away?,left __ on a table on a windy day,0.07,F,15
6,11071,cause_effect_prior,"""As usual.""",Alexander,NA,M,15,pinecones,decomposed,Alexander put  15 pinecones  in a compost pile for a month.,object_mid,NA,NA,none,short_filler,How many pinecones decomposed?,put __ in a compost pile for a month,0,F,16
6,11071,cause_effect_prior,"""As usual.""",Alexander,NA,M,15,pinecones,decomposed,Alexander put  15 pinecones  in a compost pile for a month.,object_mid,NA,NA,lower_half,short_filler,How many pinecones decomposed?,put __ in a compost pile for a month,0,F,16
6,11071,cause_effect_prior,"""As usual.""",Alexander,NA,M,15,pinecones,decomposed,Alexander put  15 pinecones  in a compost pile for a month.,object_mid,NA,NA,upper_half,short_filler,How many pinecones decomposed?,put __ in a compost pile for a month,0,F,16
6,11071,cause_effect_prior,"""As usual.""",Alexander,NA,M,15,pinecones,decomposed,Alexander put  15 pinecones  in a compost pile for a month.,object_mid,NA,NA,all,short_filler,How many pinecones decomposed?,put __ in a compost pile for a month,1,F,16
6,9081,cause_effect_prior,"""None of the pancakes landed flat.""",George,NA,M,15,pancakes,landed flat,George tossed  15 pancakes.,object_mid,NA,NA,none,None,How many pancakes landed flat?,tossed __,1,F,17
6,9081,cause_effect_prior,"""None of the pancakes landed flat.""",George,NA,M,15,pancakes,landed flat,George tossed  15 pancakes.,object_mid,NA,NA,lower_half,None,How many pancakes landed flat?,tossed __,0.01,F,17
6,9081,cause_effect_prior,"""None of the pancakes landed flat.""",George,NA,M,15,pancakes,landed flat,George tossed  15 pancakes.,object_mid,NA,NA,upper_half,None,How many pancakes landed flat?,tossed __,0,F,17
6,9081,cause_effect_prior,"""None of the pancakes landed flat.""",George,NA,M,15,pancakes,landed flat,George tossed  15 pancakes.,object_mid,NA,NA,all,None,How many pancakes landed flat?,tossed __,0,F,17
6,10807,cause_effect_prior,"""Some of the pencils melted.""",Cynthia,NA,F,15,pencils,melted,Cynthia left  15 pencils  in the hot sun.,object_low,NA,NA,none,Some,How many pencils melted?,left __ in the hot sun,0,F,18
6,10807,cause_effect_prior,"""Some of the pencils melted.""",Cynthia,NA,F,15,pencils,melted,Cynthia left  15 pencils  in the hot sun.,object_low,NA,NA,lower_half,Some,How many pencils melted?,left __ in the hot sun,0.79,F,18
6,10807,cause_effect_prior,"""Some of the pencils melted.""",Cynthia,NA,F,15,pencils,melted,Cynthia left  15 pencils  in the hot sun.,object_low,NA,NA,upper_half,Some,How many pencils melted?,left __ in the hot sun,0.29,F,18
6,10807,cause_effect_prior,"""Some of the pencils melted.""",Cynthia,NA,F,15,pencils,melted,Cynthia left  15 pencils  in the hot sun.,object_low,NA,NA,all,Some,How many pencils melted?,left __ in the hot sun,0.01,F,18
6,7105,cause_effect_prior,"""All of the books ripped.""",Brenda,NA,F,15,books,ripped,Brenda used  15 books  as dog toys.,object_high,NA,NA,none,All,How many books ripped?,used __ as dog toys,0,F,19
6,7105,cause_effect_prior,"""All of the books ripped.""",Brenda,NA,F,15,books,ripped,Brenda used  15 books  as dog toys.,object_high,NA,NA,lower_half,All,How many books ripped?,used __ as dog toys,0,F,19
6,7105,cause_effect_prior,"""All of the books ripped.""",Brenda,NA,F,15,books,ripped,Brenda used  15 books  as dog toys.,object_high,NA,NA,upper_half,All,How many books ripped?,used __ as dog toys,0,F,19
6,7105,cause_effect_prior,"""All of the books ripped.""",Brenda,NA,F,15,books,ripped,Brenda used  15 books  as dog toys.,object_high,NA,NA,all,All,How many books ripped?,used __ as dog toys,1,F,19
6,11031,cause_effect_prior,"""Some of the cups sank.""",Sharon,NA,F,15,cups,sank,Sharon threw  15 cups  into a pool.,object_mid,NA,NA,none,Some,How many cups sank?,threw __ into a pool,0,F,20
6,11031,cause_effect_prior,"""Some of the cups sank.""",Sharon,NA,F,15,cups,sank,Sharon threw  15 cups  into a pool.,object_mid,NA,NA,lower_half,Some,How many cups sank?,threw __ into a pool,0.75,F,20
6,11031,cause_effect_prior,"""Some of the cups sank.""",Sharon,NA,F,15,cups,sank,Sharon threw  15 cups  into a pool.,object_mid,NA,NA,upper_half,Some,How many cups sank?,threw __ into a pool,0.25,F,20
6,11031,cause_effect_prior,"""Some of the cups sank.""",Sharon,NA,F,15,cups,sank,Sharon threw  15 cups  into a pool.,object_mid,NA,NA,all,Some,How many cups sank?,threw __ into a pool,0,F,20
6,12183,cause_effect_prior,"""Typical.""",Amy,NA,F,15,logs,broke,Amy ran  15 logs  over with a car.,object_low,NA,NA,none,short_filler,How many logs broke?,ran __ over with a car,0,F,21
6,12183,cause_effect_prior,"""Typical.""",Amy,NA,F,15,logs,broke,Amy ran  15 logs  over with a car.,object_low,NA,NA,lower_half,short_filler,How many logs broke?,ran __ over with a car,0.25,F,21
6,12183,cause_effect_prior,"""Typical.""",Amy,NA,F,15,logs,broke,Amy ran  15 logs  over with a car.,object_low,NA,NA,upper_half,short_filler,How many logs broke?,ran __ over with a car,0.72,F,21
6,12183,cause_effect_prior,"""Typical.""",Amy,NA,F,15,logs,broke,Amy ran  15 logs  over with a car.,object_low,NA,NA,all,short_filler,How many logs broke?,ran __ over with a car,0.21,F,21
6,9488,cause_effect_prior,"""Some of the pieces of gum stuck to the wall.""",Scott,NA,M,15,pieces of gum,stuck to the wall,Scott threw  15 pieces of gum  against a wall.,object_high,NA,NA,none,Some,How many pieces of gum stuck to the wall?,threw __ against a wall,0,F,22
6,9488,cause_effect_prior,"""Some of the pieces of gum stuck to the wall.""",Scott,NA,M,15,pieces of gum,stuck to the wall,Scott threw  15 pieces of gum  against a wall.,object_high,NA,NA,lower_half,Some,How many pieces of gum stuck to the wall?,threw __ against a wall,0.67,F,22
6,9488,cause_effect_prior,"""Some of the pieces of gum stuck to the wall.""",Scott,NA,M,15,pieces of gum,stuck to the wall,Scott threw  15 pieces of gum  against a wall.,object_high,NA,NA,upper_half,Some,How many pieces of gum stuck to the wall?,threw __ against a wall,0.24,F,22
6,9488,cause_effect_prior,"""Some of the pieces of gum stuck to the wall.""",Scott,NA,M,15,pieces of gum,stuck to the wall,Scott threw  15 pieces of gum  against a wall.,object_high,NA,NA,all,Some,How many pieces of gum stuck to the wall?,threw __ against a wall,0,F,22
6,7288,cause_effect_prior,"""Some of the rocks burnt.""",Nancy,NA,F,15,rocks,burnt,Nancy threw  15 rocks  into a fire.,object_low,NA,NA,none,Some,How many rocks burnt?,threw __ into a fire,0,F,23
6,7288,cause_effect_prior,"""Some of the rocks burnt.""",Nancy,NA,F,15,rocks,burnt,Nancy threw  15 rocks  into a fire.,object_low,NA,NA,lower_half,Some,How many rocks burnt?,threw __ into a fire,0.77,F,23
6,7288,cause_effect_prior,"""Some of the rocks burnt.""",Nancy,NA,F,15,rocks,burnt,Nancy threw  15 rocks  into a fire.,object_low,NA,NA,upper_half,Some,How many rocks burnt?,threw __ into a fire,0.25,F,23
6,7288,cause_effect_prior,"""Some of the rocks burnt.""",Nancy,NA,F,15,rocks,burnt,Nancy threw  15 rocks  into a fire.,object_low,NA,NA,all,Some,How many rocks burnt?,threw __ into a fire,0,F,23
