workerid,rt,trial_type,actual_utterance,name,object_level,gender,num_objects,object,effect,actual_cause,quantifier,actual_effect_question,cause,response,other_gender,slide_number_in_experiment
0,5132,cause_effect_prior,"""None of the songs rhymed.""",Paul,object_mid,M,15,songs,rhymed,Paul wrote  15 songs.,None,How likely is it that these are normal songs?,wrote __,0.71,F,3
0,1508,cause_effect_prior,"""Some of the pancakes landed flat.""",Gary,object_mid,M,15,pancakes,landed flat,Gary tossed  15 pancakes.,Some,How likely is it that these are normal pancakes?,tossed __,0.75,M,4
0,2260,cause_effect_prior,"""Some people just love destruction.""",Julie,object_mid,F,15,block towers,fell down,Julie punched  15 block towers.,long_filler,How likely is it that these are normal block towers?,punched __,0.23,M,5
0,2880,cause_effect_prior,"""Some of the bottles of hand soap froze.""",Ryan,object_low,M,15,bottles of hand soap,froze,Ryan put  15 bottles of hand soap  in the freezer.,Some,How likely is it that these are normal bottles of hand soap?,put __ in the freezer,0.17,F,6
0,1331,cause_effect_prior,"""None of the houses beeped.""",John,object_low,M,15,houses,beeped,John left the lights on in  15 houses.,None,How likely is it that these are normal houses?,left the lights on in __,0.19,F,7
0,4115,cause_effect_prior,"""Some of the mirrors reflected the sunlight.""",Ronald,object_high,M,15,mirrors,reflected the sunlight,Ronald placed  15 mirrors  in the sun.,Some,How likely is it that these are normal mirrors?,placed __ in the sun,1,F,8
0,1564,cause_effect_prior,"""All of the birds ate the seeds.""",Deborah,object_high,F,15,birds,ate the seeds,Deborah left seeds out for  15 birds.,All,How likely is it that these are normal birds?,left seeds out for __,0.7,F,9
0,3050,cause_effect_prior,"""None of the CDs exploded.""",Joshua,object_low,M,15,CDs,exploded,Joshua heated up  15 CDs  in a microwave.,None,How likely is it that these are normal CDs?,heated up __ in a microwave,0.87,M,10
0,1901,cause_effect_prior,"""None of the lawyers laughed.""",Tyler,object_low,M,15,lawyers,laughed,Tyler told a joke to  15 lawyers.,None,How likely is it that these are normal lawyers?,told a joke to __,0.19,M,11
0,2110,cause_effect_prior,"""None of the bicycles stopped.""",David,object_low,M,15,bicycles,stopped,David pressed the brakes on  15 bicycles.,None,How likely is it that these are normal bicycles?,pressed the brakes on __,0.24,F,12
0,1669,cause_effect_prior,"""Everyone with the selfie craze these days.""",Kevin,object_mid,M,15,phones,flashed,Kevin took a picture with  15 phones.,long_filler,How likely is it that these are normal phones?,took a picture with __,0.88,M,13
0,1107,cause_effect_prior,"""It looks like a zebra.""",Sarah,object_high,F,15,stickers,stuck,Sarah glued  15 stickers  to a piece of paper.,long_filler,How likely is it that these are normal stickers?,glued __ to a piece of paper,0.82,M,14
0,6490,cause_effect_prior,"""Some of the banana peels decomposed.""",Patrick,object_high,M,15,banana peels,decomposed,Patrick put  15 banana peels  in a compost pile for a month.,Some,How likely is it that these are normal banana peels?,put __ in a compost pile for a month,1,M,15
0,2825,cause_effect_prior,"""Pushing stuff is so much fun.""",Donald,object_mid,M,15,shopping carts,rolled,Donald pushed  15 shopping carts.,long_filler,How likely is it that these are normal shopping carts?,pushed __,0.76,M,16
0,1935,cause_effect_prior,"""Pretty normal.""",Larry,object_mid,M,15,cakes,stuck to the wall,Larry threw  15 cakes  against a wall.,short_filler,How likely is it that these are normal cakes?,threw __ against a wall,0.85,M,17
0,1983,cause_effect_prior,"""Typical.""",Sharon,object_mid,F,15,crayons,melted,Sharon left  15 crayons  in the hot sun.,short_filler,How likely is it that these are normal crayons?,left __ in the hot sun,0.86,M,18
0,5115,cause_effect_prior,"""Some of the strawberries were green.""",Dennis,object_low,M,15,strawberries,were green,Dennis saw  15 strawberries.,Some,How likely is it that these are normal strawberries?,saw __,0.7,M,19
0,1883,cause_effect_prior,"""All of the eggs popped.""",Eric,object_low,M,15,eggs,popped,Eric poked  15 eggs  with a pin.,All,How likely is it that these are normal eggs?,poked __ with a pin,0.19,M,20
0,3195,cause_effect_prior,"""All of the sugar cubes dissolved.""",Virginia,object_high,F,15,sugar cubes,dissolved,Virginia put  15 sugar cubes  in a bucket of water.,All,How likely is it that these are normal sugar cubes?,put __ in a bucket of water,1,M,21
0,1668,cause_effect_prior,"""Some of the matches burnt.""",Heather,object_high,F,15,matches,burnt,Heather threw  15 matches  into a fire.,Some,How likely is it that these are normal matches?,threw __ into a fire,0.97,M,22
0,3771,cause_effect_prior,"""I just don&quotechart have the patience to write one of those.""",Melissa,object_mid,F,15,love notes,had the letter Z in them,Melissa wrote  15 love notes.,long_filler,How likely is it that these are normal love notes?,wrote __,0.18,M,23
0,2802,cause_effect_prior,"""All of the shoes ripped.""",Catherine,object_low,F,15,shoes,ripped,Catherine used  15 shoes  as dog toys.,All,How likely is it that these are normal shoes?,used __ as dog toys,0.74,F,24
0,1564,cause_effect_prior,"""As usual.""",Emily,object_high,F,15,gas tanks,exploded,Emily lit  15 gas tanks.,short_filler,How likely is it that these are normal gas tanks?,lit __,0.88,F,25
0,3098,cause_effect_prior,"""Some of the bicyclists honked.""",Robert,object_low,M,15,bicyclists,honked,Robert cut off  15 bicyclists.,Some,How likely is it that these are normal bicyclists?,cut off __,0.65,M,26
0,3179,cause_effect_prior,"""Nothing surprising there.""",Michelle,object_low,F,15,backpacks,blew away,Michelle left  15 backpacks  on a table on a windy day.,short_filler,How likely is it that these are normal backpacks?,left __ on a table on a windy day,0.82,F,27
0,1517,cause_effect_prior,"""Some of the logs broke.""",Brenda,object_low,F,15,logs,broke,Brenda ran  15 logs  over with a car.,Some,How likely is it that these are normal logs?,ran __ over with a car,0.84,M,28
0,1724,cause_effect_prior,"""All of the white shirts got stained.""",Lisa,object_mid,F,15,white shirts,got stained,Lisa spilled red nail polish on  15 white shirts.,All,How likely is it that these are normal white shirts?,spilled red nail polish on __,0.76,F,29
0,2359,cause_effect_prior,"""Some of the balloons sank.""",Brian,object_low,M,15,balloons,sank,Brian threw  15 balloons  into a pool.,Some,How likely is it that these are normal balloons?,threw __ into a pool,0.22,F,30
0,3627,cause_effect_prior,"""Nothing out of the ordinary.""",Frank,object_mid,M,15,bike lights,ran out of batteries,Frank left  15 bike lights  on (and unplugged) all day.,short_filler,How likely is it that these are normal bike lights?,left __ on (and unplugged) all day,0.86,F,31
0,1565,cause_effect_prior,"""Some of the computers lit up.""",Susan,object_mid,F,15,computers,lit up,Susan pressed the &quotecharon&quotechar button on  15 computers.,Some,How likely is it that these are normal computers?,pressed the &quotecharon&quotechar button on __,0.79,F,32
1,15773,cause_effect_prior,"""I love watching fires.""",Nicholas,object_high,M,15,matches,burnt,Nicholas threw  15 matches  into a fire.,long_filler,How likely is it that these are normal matches?,threw __ into a fire,0.93,M,3
1,7951,cause_effect_prior,"""That&quotechars not very good for the environment.""",Jessica,object_high,F,15,new cars,beeped,Jessica left the lights on in  15 new cars.,long_filler,How likely is it that these are normal new cars?,left the lights on in __,0.91,F,4
1,2496,cause_effect_prior,"""Some of the webcams flashed.""",Jason,object_low,M,15,webcams,flashed,Jason took a picture with  15 webcams.,Some,How likely is it that these are normal webcams?,took a picture with __,0.88,F,5
1,5631,cause_effect_prior,"""Some of the bicyclists honked.""",Christopher,object_low,M,15,bicyclists,honked,Christopher cut off  15 bicyclists.,Some,How likely is it that these are normal bicyclists?,cut off __,0.35,F,6
1,5552,cause_effect_prior,"""Some of the flashlights lit up.""",Alexander,object_high,M,15,flashlights,lit up,Alexander pressed the &quotecharon&quotechar button on  15 flashlights.,Some,How likely is it that these are normal flashlights?,pressed the &quotecharon&quotechar button on __,0.75,M,7
1,3664,cause_effect_prior,"""Pretty normal.""",Joseph,object_mid,M,15,shirts,ripped,Joseph used  15 shirts  as dog toys.,short_filler,How likely is it that these are normal shirts?,used __ as dog toys,0.82,M,8
1,4336,cause_effect_prior,"""Some of the white shirts got stained.""",Jeffrey,object_mid,M,15,white shirts,got stained,Jeffrey spilled red nail polish on  15 white shirts.,Some,How likely is it that these are normal white shirts?,spilled red nail polish on __,0.86,F,9
1,3490,cause_effect_prior,"""Some of the clovers were green.""",Scott,object_high,M,15,clovers,were green,Scott saw  15 clovers.,Some,How likely is it that these are normal clovers?,saw __,0.94,M,10
1,4339,cause_effect_prior,"""That requires a lot of concentration.""",Julie,object_low,F,15,eggs,popped,Julie poked  15 eggs  with a pin.,long_filler,How likely is it that these are normal eggs?,poked __ with a pin,0.91,F,11
1,2400,cause_effect_prior,"""All of the CDs exploded.""",Donna,object_low,F,15,CDs,exploded,Donna heated up  15 CDs  in a microwave.,All,How likely is it that these are normal CDs?,heated up __ in a microwave,0.94,M,12
1,3663,cause_effect_prior,"""All of the wheelchairs rolled.""",Jennifer,object_high,F,15,wheelchairs,rolled,Jennifer pushed  15 wheelchairs.,All,How likely is it that these are normal wheelchairs?,pushed __,0.86,M,13
1,4113,cause_effect_prior,"""All of the dogs ate the seeds.""",Kathleen,object_low,F,15,dogs,ate the seeds,Kathleen left seeds out for  15 dogs.,All,How likely is it that these are normal dogs?,left seeds out for __,0.87,F,14
1,5632,cause_effect_prior,"""Nothing surprising there.""",Eric,object_mid,M,15,pancakes,landed flat,Eric tossed  15 pancakes.,short_filler,How likely is it that these are normal pancakes?,tossed __,0.9,F,15
1,5655,cause_effect_prior,"""There are people starving in the world.""",Richard,object_mid,M,15,oreos,dissolved,Richard put  15 oreos  in a bucket of water.,long_filler,How likely is it that these are normal oreos?,put __ in a bucket of water,0.93,M,16
1,2175,cause_effect_prior,"""Some of the hats blew away.""",Carol,object_mid,F,15,hats,blew away,Carol left  15 hats  on a table on a windy day.,Some,How likely is it that these are normal hats?,left __ on a table on a windy day,0.95,F,17
1,2281,cause_effect_prior,"""Nothing out of the ordinary.""",Mary,object_mid,F,15,bike lights,ran out of batteries,Mary left  15 bike lights  on (and unplugged) all day.,short_filler,How likely is it that these are normal bike lights?,left __ on (and unplugged) all day,0.94,F,18
1,5440,cause_effect_prior,"""Some of the lawyers laughed.""",Raymond,object_low,M,15,lawyers,laughed,Raymond told a joke to  15 lawyers.,Some,How likely is it that these are normal lawyers?,told a joke to __,0.52,M,19
1,4176,cause_effect_prior,"""It&quotechars just fun to throw stuff in the water.""",Ronald,object_high,M,15,marbles,sank,Ronald threw  15 marbles  into a pool.,long_filler,How likely is it that these are normal marbles?,threw __ into a pool,0.89,F,20
1,4368,cause_effect_prior,"""None of the motorcycles stopped.""",George,object_mid,M,15,motorcycles,stopped,George pressed the brakes on  15 motorcycles.,None,How likely is it that these are normal motorcycles?,pressed the brakes on __,0.87,M,21
1,4384,cause_effect_prior,"""Typical.""",Frank,object_mid,M,15,fireworks,exploded,Frank lit  15 fireworks.,short_filler,How likely is it that these are normal fireworks?,lit __,0.85,F,22
1,5223,cause_effect_prior,"""Some of the soda cans decomposed.""",Jack,object_low,M,15,soda cans,decomposed,Jack put  15 soda cans  in a compost pile for a month.,Some,How likely is it that these are normal soda cans?,put __ in a compost pile for a month,0.55,M,23
1,5535,cause_effect_prior,"""As usual.""",Dorothy,object_high,F,15,berries,froze,Dorothy put  15 berries  in the freezer.,short_filler,How likely is it that these are normal berries?,put __ in the freezer,0.83,M,24
1,2629,cause_effect_prior,"""Some of the stickers stuck.""",Catherine,object_high,F,15,stickers,stuck,Catherine glued  15 stickers  to a piece of paper.,Some,How likely is it that these are normal stickers?,glued __ to a piece of paper,0.89,F,25
1,4544,cause_effect_prior,"""All of the card towers fell down.""",Jerry,object_high,M,15,card towers,fell down,Jerry punched  15 card towers.,All,How likely is it that these are normal card towers?,punched __,0.92,M,26
1,2968,cause_effect_prior,"""All of the poems rhymed.""",Donald,object_low,M,15,poems,rhymed,Donald wrote  15 poems.,All,How likely is it that these are normal poems?,wrote __,0.5,M,27
1,4616,cause_effect_prior,"""None of the love notes had the letter Z in them.""",Steven,object_mid,M,15,love notes,had the letter Z in them,Steven wrote  15 love notes.,None,How likely is it that these are normal love notes?,wrote __,0.6,M,28
1,5832,cause_effect_prior,"""None of the ice cubes melted.""",Margaret,object_high,F,15,ice cubes,melted,Margaret left  15 ice cubes  in the hot sun.,None,How likely is it that these are normal ice cubes?,left __ in the hot sun,0.02,M,29
1,3920,cause_effect_prior,"""None of the sunglasses broke.""",Karen,object_high,F,15,sunglasses,broke,Karen ran  15 sunglasses  over with a car.,None,How likely is it that these are normal sunglasses?,ran __ over with a car,0.03,F,30
1,4840,cause_effect_prior,"""Some of the mirrors reflected the sunlight.""",Virginia,object_high,F,15,mirrors,reflected the sunlight,Virginia placed  15 mirrors  in the sun.,Some,How likely is it that these are normal mirrors?,placed __ in the sun,0.32,F,31
1,3056,cause_effect_prior,"""None of the pieces of gum stuck to the wall.""",Janet,object_high,F,15,pieces of gum,stuck to the wall,Janet threw  15 pieces of gum  against a wall.,None,How likely is it that these are normal pieces of gum?,threw __ against a wall,0.32,M,32
2,5943,cause_effect_prior,"""All of the chocolate bars froze.""",Anthony,object_mid,M,15,chocolate bars,froze,Anthony put  15 chocolate bars  in the freezer.,All,How likely is it that these are normal chocolate bars?,put __ in the freezer,1,F,3
2,4440,cause_effect_prior,"""None of the pencils melted.""",Jessica,object_low,F,15,pencils,melted,Jessica left  15 pencils  in the hot sun.,None,How likely is it that these are normal pencils?,left __ in the hot sun,1,M,4
2,6462,cause_effect_prior,"""Some of the pancakes landed flat.""",Dorothy,object_mid,F,15,pancakes,landed flat,Dorothy tossed  15 pancakes.,Some,How likely is it that these are normal pancakes?,tossed __,0.77,F,5
2,10274,cause_effect_prior,"""I just wish the weather was better.""",Sandra,object_mid,F,15,hats,blew away,Sandra left  15 hats  on a table on a windy day.,long_filler,How likely is it that these are normal hats?,left __ on a table on a windy day,0.35,F,6
2,5683,cause_effect_prior,"""Pretty normal.""",David,object_high,M,15,kids,laughed,David told a joke to  15 kids.,short_filler,How likely is it that these are normal kids?,told a joke to __,0.23,F,7
2,5342,cause_effect_prior,"""Nothing out of the ordinary.""",Thomas,object_mid,M,15,cups,sank,Thomas threw  15 cups  into a pool.,short_filler,How likely is it that these are normal cups?,threw __ into a pool,0,M,8
2,5708,cause_effect_prior,"""Some of the cars stopped.""",Amy,object_high,F,15,cars,stopped,Amy pressed the brakes on  15 cars.,Some,How likely is it that these are normal cars?,pressed the brakes on __,0.83,M,9
2,7840,cause_effect_prior,"""I wish we could just say &quotecharon&quotechar.""",Tyler,object_mid,M,15,computers,lit up,Tyler pressed the &quotecharon&quotechar button on  15 computers.,long_filler,How likely is it that these are normal computers?,pressed the &quotecharon&quotechar button on __,0.98,F,10
2,4748,cause_effect_prior,"""All of the diamonds reflected the sunlight.""",Scott,object_mid,M,15,diamonds,reflected the sunlight,Scott placed  15 diamonds  in the sun.,All,How likely is it that these are normal diamonds?,placed __ in the sun,1,M,11
2,5841,cause_effect_prior,"""Why always the red?""",Ronald,object_high,M,15,white carpets,got stained,Ronald spilled red nail polish on  15 white carpets.,long_filler,How likely is it that these are normal white carpets?,spilled red nail polish on __,0.17,F,12
2,5273,cause_effect_prior,"""Some of the poems rhymed.""",Michelle,object_low,F,15,poems,rhymed,Michelle wrote  15 poems.,Some,How likely is it that these are normal poems?,wrote __,0.85,F,13
2,6598,cause_effect_prior,"""Typical.""",Gregory,object_mid,M,15,balloons,popped,Gregory poked  15 balloons  with a pin.,short_filler,How likely is it that these are normal balloons?,poked __ with a pin,0.68,M,14
2,5423,cause_effect_prior,"""All of the books ripped.""",Jason,object_high,M,15,books,ripped,Jason used  15 books  as dog toys.,All,How likely is it that these are normal books?,used __ as dog toys,0.83,M,15
2,6998,cause_effect_prior,"""Some of the shopping carts rolled.""",Dennis,object_mid,M,15,shopping carts,rolled,Dennis pushed  15 shopping carts.,Some,How likely is it that these are normal shopping carts?,pushed __,0.83,M,16
2,4497,cause_effect_prior,"""All of the cameras flashed.""",Frank,object_high,M,15,cameras,flashed,Frank took a picture with  15 cameras.,All,How likely is it that these are normal cameras?,took a picture with __,0.89,M,17
2,7440,cause_effect_prior,"""Some of the love notes had the letter Z in them.""",Larry,object_mid,M,15,love notes,had the letter Z in them,Larry wrote  15 love notes.,Some,How likely is it that these are normal love notes?,wrote __,0.96,F,18
2,4459,cause_effect_prior,"""None of the eggs exploded.""",Melissa,object_high,F,15,eggs,exploded,Melissa heated up  15 eggs  in a microwave.,None,How likely is it that these are normal eggs?,heated up __ in a microwave,0.9,M,19
2,4649,cause_effect_prior,"""Some of the bus drivers honked.""",Richard,object_mid,M,15,bus drivers,honked,Richard cut off  15 bus drivers.,Some,How likely is it that these are normal bus drivers?,cut off __,1,M,20
2,4049,cause_effect_prior,"""None of the clovers were green.""",Mark,object_high,M,15,clovers,were green,Mark saw  15 clovers.,None,How likely is it that these are normal clovers?,saw __,0,M,21
2,5836,cause_effect_prior,"""Some of the houses beeped.""",Jennifer,object_low,F,15,houses,beeped,Jennifer left the lights on in  15 houses.,Some,How likely is it that these are normal houses?,left the lights on in __,0.11,M,22
2,5556,cause_effect_prior,"""Some of the pieces of gum stuck to the wall.""",Steven,object_high,M,15,pieces of gum,stuck to the wall,Steven threw  15 pieces of gum  against a wall.,Some,How likely is it that these are normal pieces of gum?,threw __ against a wall,0.86,F,23
2,5035,cause_effect_prior,"""All of the beads stuck.""",Karen,object_low,F,15,beads,stuck,Karen glued  15 beads  to a piece of paper.,All,How likely is it that these are normal beads?,glued __ to a piece of paper,0.76,F,24
2,4454,cause_effect_prior,"""Some of the birds ate the seeds.""",Gary,object_high,M,15,birds,ate the seeds,Gary left seeds out for  15 birds.,Some,How likely is it that these are normal birds?,left seeds out for __,0.85,M,25
2,5892,cause_effect_prior,"""As usual.""",Jonathan,object_high,M,15,laptops,ran out of batteries,Jonathan left  15 laptops  on (and unplugged) all day.,short_filler,How likely is it that these are normal laptops?,left __ on (and unplugged) all day,0.78,M,26
2,7738,cause_effect_prior,"""None of the boxes broke.""",Brandon,object_mid,M,15,boxes,broke,Brandon ran  15 boxes  over with a car.,None,How likely is it that these are normal boxes?,ran __ over with a car,0.09,F,27
2,3583,cause_effect_prior,"""Some of the fireworks exploded.""",James,object_mid,M,15,fireworks,exploded,James lit  15 fireworks.,Some,How likely is it that these are normal fireworks?,lit __,0.9,F,28
2,5652,cause_effect_prior,"""None of the shelves fell down.""",Emily,object_low,F,15,shelves,fell down,Emily punched  15 shelves.,None,How likely is it that these are normal shelves?,punched __,0.62,F,29
2,5759,cause_effect_prior,"""What a great way to reduce trash.""",Justin,object_low,M,15,soda cans,decomposed,Justin put  15 soda cans  in a compost pile for a month.,long_filler,How likely is it that these are normal soda cans?,put __ in a compost pile for a month,0.1,M,30
2,5597,cause_effect_prior,"""I love watching fires.""",Samantha,object_high,F,15,matches,burnt,Samantha threw  15 matches  into a fire.,long_filler,How likely is it that these are normal matches?,threw __ into a fire,0.8,F,31
2,5703,cause_effect_prior,"""Nothing surprising there.""",Amanda,object_low,F,15,carrots,dissolved,Amanda put  15 carrots  in a bucket of water.,short_filler,How likely is it that these are normal carrots?,put __ in a bucket of water,0.33,M,32
3,5237,cause_effect_prior,"""Some of the taxi drivers honked.""",Diane,object_high,F,15,taxi drivers,honked,Diane cut off  15 taxi drivers.,Some,How likely is it that these are normal taxi drivers?,cut off __,0.73,M,3
3,6416,cause_effect_prior,"""Some of the sequins stuck.""",Betty,object_mid,F,15,sequins,stuck,Betty glued  15 sequins  to a piece of paper.,Some,How likely is it that these are normal sequins?,glued __ to a piece of paper,0.77,M,4
3,4791,cause_effect_prior,"""Typical.""",Edward,object_high,M,15,matches,burnt,Edward threw  15 matches  into a fire.,short_filler,How likely is it that these are normal matches?,threw __ into a fire,0.91,M,5
3,2703,cause_effect_prior,"""Nothing out of the ordinary.""",Kathleen,object_high,F,15,sugar cubes,dissolved,Kathleen put  15 sugar cubes  in a bucket of water.,short_filler,How likely is it that these are normal sugar cubes?,put __ in a bucket of water,0.95,F,6
3,2107,cause_effect_prior,"""All of the fireworks exploded.""",Paul,object_mid,M,15,fireworks,exploded,Paul lit  15 fireworks.,All,How likely is it that these are normal fireworks?,lit __,0.92,M,7
3,4172,cause_effect_prior,"""Some of the laptops ran out of batteries.""",James,object_high,M,15,laptops,ran out of batteries,James left  15 laptops  on (and unplugged) all day.,Some,How likely is it that these are normal laptops?,left __ on (and unplugged) all day,0.83,F,8
3,2431,cause_effect_prior,"""What a strange thing to do.""",Virginia,object_mid,F,15,cakes,stuck to the wall,Virginia threw  15 cakes  against a wall.,long_filler,How likely is it that these are normal cakes?,threw __ against a wall,0.17,F,9
3,1672,cause_effect_prior,"""Pretty normal.""",Donna,object_mid,F,15,computers,lit up,Donna pressed the &quotecharon&quotechar button on  15 computers.,short_filler,How likely is it that these are normal computers?,pressed the &quotecharon&quotechar button on __,0.83,F,10
3,3887,cause_effect_prior,"""Some of the block towers fell down.""",Jennifer,object_mid,F,15,block towers,fell down,Jennifer punched  15 block towers.,Some,How likely is it that these are normal block towers?,punched __,0.8,F,11
3,5449,cause_effect_prior,"""As usual.""",Samuel,object_mid,M,15,balloons,popped,Samuel poked  15 balloons  with a pin.,short_filler,How likely is it that these are normal balloons?,poked __ with a pin,0.74,M,12
3,2703,cause_effect_prior,"""Some of the ice cubes melted.""",Raymond,object_high,M,15,ice cubes,melted,Raymond left  15 ice cubes  in the hot sun.,Some,How likely is it that these are normal ice cubes?,left __ in the hot sun,0.86,M,13
3,4599,cause_effect_prior,"""I wish someone would leave seeds out for me.""",Tyler,object_mid,M,15,butterflies,ate the seeds,Tyler left seeds out for  15 butterflies.,long_filler,How likely is it that these are normal butterflies?,left seeds out for __,0.49,F,14
3,1960,cause_effect_prior,"""All of the kids laughed.""",Jessica,object_high,F,15,kids,laughed,Jessica told a joke to  15 kids.,All,How likely is it that these are normal kids?,told a joke to __,0.85,M,15
3,8195,cause_effect_prior,"""All of the houses beeped.""",Richard,object_low,M,15,houses,beeped,Richard left the lights on in  15 houses.,All,How likely is it that these are normal houses?,left the lights on in __,0.25,M,16
3,3566,cause_effect_prior,"""Some of the phones flashed.""",Deborah,object_mid,F,15,phones,flashed,Deborah took a picture with  15 phones.,Some,How likely is it that these are normal phones?,took a picture with __,0.72,M,17
3,4063,cause_effect_prior,"""None of the clovers were green.""",Jack,object_high,M,15,clovers,were green,Jack saw  15 clovers.,None,How likely is it that these are normal clovers?,saw __,0.3,M,18
3,2392,cause_effect_prior,"""It&quotechars so pretty.""",Timothy,object_low,M,15,poems,rhymed,Timothy wrote  15 poems.,long_filler,How likely is it that these are normal poems?,wrote __,0.84,F,19
3,1880,cause_effect_prior,"""Some of the napkins blew away.""",Cynthia,object_high,F,15,napkins,blew away,Cynthia left  15 napkins  on a table on a windy day.,Some,How likely is it that these are normal napkins?,left __ on a table on a windy day,0.64,F,20
3,2896,cause_effect_prior,"""None of the cups sank.""",Sarah,object_mid,F,15,cups,sank,Sarah threw  15 cups  into a pool.,None,How likely is it that these are normal cups?,threw __ into a pool,0.24,F,21
3,3049,cause_effect_prior,"""Some of the white carpets got stained.""",Ryan,object_high,M,15,white carpets,got stained,Ryan spilled red nail polish on  15 white carpets.,Some,How likely is it that these are normal white carpets?,spilled red nail polish on __,0.7,M,22
3,2119,cause_effect_prior,"""None of the birthday cards had the letter Z in them.""",Jeffrey,object_low,M,15,birthday cards,had the letter Z in them,Jeffrey wrote  15 birthday cards.,None,How likely is it that these are normal birthday cards?,wrote __,0.61,M,23
3,1712,cause_effect_prior,"""Some of the notebooks landed flat.""",Brandon,object_low,M,15,notebooks,landed flat,Brandon tossed  15 notebooks.,Some,How likely is it that these are normal notebooks?,tossed __,0.76,M,24
3,3872,cause_effect_prior,"""Some of the mirrors reflected the sunlight.""",Margaret,object_high,F,15,mirrors,reflected the sunlight,Margaret placed  15 mirrors  in the sun.,Some,How likely is it that these are normal mirrors?,placed __ in the sun,0.31,F,25
3,1774,cause_effect_prior,"""That reminds me I need to visit my grandma.""",Julie,object_mid,F,15,chocolate bars,froze,Julie put  15 chocolate bars  in the freezer.,long_filler,How likely is it that these are normal chocolate bars?,put __ in the freezer,0.69,M,26
3,944,cause_effect_prior,"""All of the bicycles stopped.""",Alexander,object_low,M,15,bicycles,stopped,Alexander pressed the brakes on  15 bicycles.,All,How likely is it that these are normal bicycles?,pressed the brakes on __,0.57,M,27
3,4040,cause_effect_prior,"""None of the boxes broke.""",Andrew,object_mid,M,15,boxes,broke,Andrew ran  15 boxes  over with a car.,None,How likely is it that these are normal boxes?,ran __ over with a car,0.32,F,28
3,2729,cause_effect_prior,"""Nothing surprising there.""",Rebecca,object_mid,F,15,balls of tin foil,exploded,Rebecca heated up  15 balls of tin foil  in a microwave.,short_filler,How likely is it that these are normal balls of tin foil?,heated up __ in a microwave,0.83,M,29
3,2239,cause_effect_prior,"""What a great way to reduce trash.""",Elizabeth,object_high,F,15,banana peels,decomposed,Elizabeth put  15 banana peels  in a compost pile for a month.,long_filler,How likely is it that these are normal banana peels?,put __ in a compost pile for a month,0.65,F,30
3,3104,cause_effect_prior,"""All of the toy cars rolled.""",Steven,object_low,M,15,toy cars,rolled,Steven pushed  15 toy cars.,All,How likely is it that these are normal toy cars?,pushed __,0.83,M,31
3,2488,cause_effect_prior,"""None of the shoes ripped.""",Stephanie,object_low,F,15,shoes,ripped,Stephanie used  15 shoes  as dog toys.,None,How likely is it that these are normal shoes?,used __ as dog toys,0.42,F,32
4,17276,cause_effect_prior,"""All of the cd-players lit up.""",James,object_low,M,15,cd-players,lit up,James pressed the &quotecharon&quotechar button on  15 cd-players.,All,How likely is it that these are normal cd-players?,pressed the &quotecharon&quotechar button on __,0.22,F,3
4,6885,cause_effect_prior,"""Some of the baseballs stuck to the wall.""",Alexander,object_low,M,15,baseballs,stuck to the wall,Alexander threw  15 baseballs  against a wall.,Some,How likely is it that these are normal baseballs?,threw __ against a wall,0.01,F,4
4,12026,cause_effect_prior,"""I love watching fires.""",Ashley,object_mid,F,15,books,burnt,Ashley threw  15 books  into a fire.,long_filler,How likely is it that these are normal books?,threw __ into a fire,0.68,M,5
4,10951,cause_effect_prior,"""As usual.""",Gregory,object_high,M,15,ice cubes,melted,Gregory left  15 ice cubes  in the hot sun.,short_filler,How likely is it that these are normal ice cubes?,left __ in the hot sun,0.72,M,6
4,9137,cause_effect_prior,"""Nothing surprising there.""",Charles,object_high,M,15,berries,froze,Charles put  15 berries  in the freezer.,short_filler,How likely is it that these are normal berries?,put __ in the freezer,0.63,M,7
4,1534,cause_effect_prior,"""It looks like a zebra.""",Brandon,object_low,M,15,beads,stuck,Brandon glued  15 beads  to a piece of paper.,long_filler,How likely is it that these are normal beads?,glued __ to a piece of paper,0.49,F,8
4,2730,cause_effect_prior,"""Some people just love destruction.""",Eric,object_high,M,15,card towers,fell down,Eric punched  15 card towers.,long_filler,How likely is it that these are normal card towers?,punched __,0.4,F,9
4,2782,cause_effect_prior,"""Some of the bicyclists honked.""",Nicole,object_low,F,15,bicyclists,honked,Nicole cut off  15 bicyclists.,Some,How likely is it that these are normal bicyclists?,cut off __,0.54,M,10
4,3538,cause_effect_prior,"""None of the sugar cubes dissolved.""",Susan,object_high,F,15,sugar cubes,dissolved,Susan put  15 sugar cubes  in a bucket of water.,None,How likely is it that these are normal sugar cubes?,put __ in a bucket of water,0.49,M,11
4,3302,cause_effect_prior,"""So many parts need to work for us to not die.""",Tyler,object_high,M,15,cars,stopped,Tyler pressed the brakes on  15 cars.,long_filler,How likely is it that these are normal cars?,pressed the brakes on __,0.54,M,12
4,3214,cause_effect_prior,"""Some of the napkins blew away.""",Helen,object_high,F,15,napkins,blew away,Helen left  15 napkins  on a table on a windy day.,Some,How likely is it that these are normal napkins?,left __ on a table on a windy day,0.7,M,13
4,5284,cause_effect_prior,"""Some of the diamonds reflected the sunlight.""",Ryan,object_mid,M,15,diamonds,reflected the sunlight,Ryan placed  15 diamonds  in the sun.,Some,How likely is it that these are normal diamonds?,placed __ in the sun,0.71,F,14
4,4181,cause_effect_prior,"""None of the lawyers laughed.""",Carolyn,object_low,F,15,lawyers,laughed,Carolyn told a joke to  15 lawyers.,None,How likely is it that these are normal lawyers?,told a joke to __,0.58,M,15
4,3240,cause_effect_prior,"""Some of the notebooks landed flat.""",Dennis,object_low,M,15,notebooks,landed flat,Dennis tossed  15 notebooks.,Some,How likely is it that these are normal notebooks?,tossed __,0.63,M,16
4,2333,cause_effect_prior,"""Some of the limericks rhymed.""",Catherine,object_high,F,15,limericks,rhymed,Catherine wrote  15 limericks.,Some,How likely is it that these are normal limericks?,wrote __,0.6,M,17
4,9193,cause_effect_prior,"""None of the eggs popped.""",Sharon,object_low,F,15,eggs,popped,Sharon poked  15 eggs  with a pin.,None,How likely is it that these are normal eggs?,poked __ with a pin,0.76,M,18
4,3356,cause_effect_prior,"""Typical.""",Anna,object_mid,F,15,old cars,beeped,Anna left the lights on in  15 old cars.,short_filler,How likely is it that these are normal old cars?,left the lights on in __,0.66,M,19
4,2355,cause_effect_prior,"""Nothing out of the ordinary.""",Shirley,object_high,F,15,sunglasses,broke,Shirley ran  15 sunglasses  over with a car.,short_filler,How likely is it that these are normal sunglasses?,ran __ over with a car,0.47,F,20
4,2786,cause_effect_prior,"""Some of the soda cans decomposed.""",Nancy,object_low,F,15,soda cans,decomposed,Nancy put  15 soda cans  in a compost pile for a month.,Some,How likely is it that these are normal soda cans?,put __ in a compost pile for a month,0.37,M,21
4,1608,cause_effect_prior,"""Who came up with that idea?""",Gary,object_high,M,15,gas tanks,exploded,Gary lit  15 gas tanks.,long_filler,How likely is it that these are normal gas tanks?,lit __,0.55,F,22
4,1850,cause_effect_prior,"""All of the balls of tin foil exploded.""",Sandra,object_mid,F,15,balls of tin foil,exploded,Sandra heated up  15 balls of tin foil  in a microwave.,All,How likely is it that these are normal balls of tin foil?,heated up __ in a microwave,0.37,F,23
4,2324,cause_effect_prior,"""Some of the birds ate the seeds.""",Emma,object_high,F,15,birds,ate the seeds,Emma left seeds out for  15 birds.,Some,How likely is it that these are normal birds?,left seeds out for __,0.59,M,24
4,2032,cause_effect_prior,"""Some of the white tablecloths got stained.""",Jennifer,object_low,F,15,white tablecloths,got stained,Jennifer spilled red nail polish on  15 white tablecloths.,Some,How likely is it that these are normal white tablecloths?,spilled red nail polish on __,0.64,F,25
4,2875,cause_effect_prior,"""All of the phones ran out of batteries.""",Ronald,object_low,M,15,phones,ran out of batteries,Ronald left  15 phones  on (and unplugged) all day.,All,How likely is it that these are normal phones?,left __ on (and unplugged) all day,0.71,F,26
4,3218,cause_effect_prior,"""Some of the phones flashed.""",Timothy,object_mid,M,15,phones,flashed,Timothy took a picture with  15 phones.,Some,How likely is it that these are normal phones?,took a picture with __,0.71,F,27
4,8365,cause_effect_prior,"""Pretty normal.""",Janet,object_mid,F,15,shirts,ripped,Janet used  15 shirts  as dog toys.,short_filler,How likely is it that these are normal shirts?,used __ as dog toys,0.68,M,28
4,2343,cause_effect_prior,"""All of the wheelchairs rolled.""",Christopher,object_high,M,15,wheelchairs,rolled,Christopher pushed  15 wheelchairs.,All,How likely is it that these are normal wheelchairs?,pushed __,0.67,M,29
4,2164,cause_effect_prior,"""All of the novels had the letter Z in them.""",Raymond,object_high,M,15,novels,had the letter Z in them,Raymond wrote  15 novels.,All,How likely is it that these are normal novels?,wrote __,0.66,M,30
4,2485,cause_effect_prior,"""None of the balloons sank.""",Ruth,object_low,F,15,balloons,sank,Ruth threw  15 balloons  into a pool.,None,How likely is it that these are normal balloons?,threw __ into a pool,0.68,M,31
4,1913,cause_effect_prior,"""None of the clovers were green.""",Amy,object_high,F,15,clovers,were green,Amy saw  15 clovers.,None,How likely is it that these are normal clovers?,saw __,0.6,F,32
5,11340,cause_effect_prior,"""Some of the bottles of hand soap froze.""",Rachel,object_low,F,15,bottles of hand soap,froze,Rachel put  15 bottles of hand soap  in the freezer.,Some,How likely is it that these are normal bottles of hand soap?,put __ in the freezer,0.51,F,3
5,10770,cause_effect_prior,"""Some of the block towers fell down.""",Gregory,object_mid,M,15,block towers,fell down,Gregory punched  15 block towers.,Some,How likely is it that these are normal block towers?,punched __,0.33,M,4
5,4671,cause_effect_prior,"""None of the bananas were green.""",Karen,object_mid,F,15,bananas,were green,Karen saw  15 bananas.,None,How likely is it that these are normal bananas?,saw __,0.95,M,5
5,7701,cause_effect_prior,"""That looks kind of dangerous.""",Emily,object_low,F,15,bicyclists,honked,Emily cut off  15 bicyclists.,long_filler,How likely is it that these are normal bicyclists?,cut off __,0.61,M,6
5,5000,cause_effect_prior,"""Some of the sequins stuck.""",Steven,object_mid,M,15,sequins,stuck,Steven glued  15 sequins  to a piece of paper.,Some,How likely is it that these are normal sequins?,glued __ to a piece of paper,0.89,F,7
5,7406,cause_effect_prior,"""Pretty normal.""",Julie,object_high,F,15,wheelchairs,rolled,Julie pushed  15 wheelchairs.,short_filler,How likely is it that these are normal wheelchairs?,pushed __,0.21,M,8
5,5636,cause_effect_prior,"""Some of the sugar cubes dissolved.""",William,object_high,M,15,sugar cubes,dissolved,William put  15 sugar cubes  in a bucket of water.,Some,How likely is it that these are normal sugar cubes?,put __ in a bucket of water,0.85,F,9
5,4960,cause_effect_prior,"""Some of the gas tanks exploded.""",Raymond,object_high,M,15,gas tanks,exploded,Raymond lit  15 gas tanks.,Some,How likely is it that these are normal gas tanks?,lit __,0.82,M,10
5,4335,cause_effect_prior,"""All of the computers lit up.""",Brian,object_mid,M,15,computers,lit up,Brian pressed the &quotecharon&quotechar button on  15 computers.,All,How likely is it that these are normal computers?,pressed the &quotecharon&quotechar button on __,0.97,F,11
5,6920,cause_effect_prior,"""None of the crayons melted.""",Kimberly,object_mid,F,15,crayons,melted,Kimberly left  15 crayons  in the hot sun.,None,How likely is it that these are normal crayons?,left __ in the hot sun,0.14,M,12
5,7700,cause_effect_prior,"""It&quotechars just fun to throw stuff in the water.""",Gary,object_mid,M,15,cups,sank,Gary threw  15 cups  into a pool.,long_filler,How likely is it that these are normal cups?,threw __ into a pool,0.74,M,13
5,5064,cause_effect_prior,"""That requires a lot of concentration.""",Tyler,object_mid,M,15,balloons,popped,Tyler poked  15 balloons  with a pin.,long_filler,How likely is it that these are normal balloons?,poked __ with a pin,0.04,F,14
5,6420,cause_effect_prior,"""Some of the books ripped.""",John,object_high,M,15,books,ripped,John used  15 books  as dog toys.,Some,How likely is it that these are normal books?,used __ as dog toys,0.7,F,15
5,7176,cause_effect_prior,"""None of the butterflies ate the seeds.""",Carolyn,object_mid,F,15,butterflies,ate the seeds,Carolyn left seeds out for  15 butterflies.,None,How likely is it that these are normal butterflies?,left seeds out for __,0.84,M,16
5,5495,cause_effect_prior,"""Nothing out of the ordinary.""",Carol,object_mid,F,15,boxes,broke,Carol ran  15 boxes  over with a car.,short_filler,How likely is it that these are normal boxes?,ran __ over with a car,0.89,M,17
5,6089,cause_effect_prior,"""None of the houses beeped.""",Robert,object_low,M,15,houses,beeped,Robert left the lights on in  15 houses.,None,How likely is it that these are normal houses?,left the lights on in __,0.85,F,18
5,4946,cause_effect_prior,"""All of the kids laughed.""",Heather,object_high,F,15,kids,laughed,Heather told a joke to  15 kids.,All,How likely is it that these are normal kids?,told a joke to __,0.91,F,19
5,4604,cause_effect_prior,"""All of the eggs exploded.""",Jacob,object_high,M,15,eggs,exploded,Jacob heated up  15 eggs  in a microwave.,All,How likely is it that these are normal eggs?,heated up __ in a microwave,0.88,F,20
5,3884,cause_effect_prior,"""As usual.""",Michael,object_low,M,15,rocks,burnt,Michael threw  15 rocks  into a fire.,short_filler,How likely is it that these are normal rocks?,threw __ into a fire,0.94,F,21
5,3900,cause_effect_prior,"""Typical.""",Ashley,object_high,F,15,coins,landed flat,Ashley tossed  15 coins.,short_filler,How likely is it that these are normal coins?,tossed __,0.87,F,22
5,4607,cause_effect_prior,"""All of the white shirts got stained.""",Edward,object_mid,M,15,white shirts,got stained,Edward spilled red nail polish on  15 white shirts.,All,How likely is it that these are normal white shirts?,spilled red nail polish on __,0.96,F,23
5,7103,cause_effect_prior,"""Some of the motorcycles stopped.""",Emily,object_mid,F,15,motorcycles,stopped,Emily pressed the brakes on  15 motorcycles.,Some,How likely is it that these are normal motorcycles?,pressed the brakes on __,0.37,F,24
5,4571,cause_effect_prior,"""Some of the pieces of gum stuck to the wall.""",Jessica,object_high,F,15,pieces of gum,stuck to the wall,Jessica threw  15 pieces of gum  against a wall.,Some,How likely is it that these are normal pieces of gum?,threw __ against a wall,0.86,F,25
5,4473,cause_effect_prior,"""Nothing surprising there.""",Benjamin,object_mid,M,15,love notes,had the letter Z in them,Benjamin wrote  15 love notes.,short_filler,How likely is it that these are normal love notes?,wrote __,0.9,M,26
5,7037,cause_effect_prior,"""None of the phones ran out of batteries.""",Shirley,object_low,F,15,phones,ran out of batteries,Shirley left  15 phones  on (and unplugged) all day.,None,How likely is it that these are normal phones?,left __ on (and unplugged) all day,0.74,F,27
5,4094,cause_effect_prior,"""All of the banana peels decomposed.""",Janet,object_high,F,15,banana peels,decomposed,Janet put  15 banana peels  in a compost pile for a month.,All,How likely is it that these are normal banana peels?,put __ in a compost pile for a month,0.91,M,28
5,6272,cause_effect_prior,"""Everyone with the selfie craze these days.""",Timothy,object_mid,M,15,phones,flashed,Timothy took a picture with  15 phones.,long_filler,How likely is it that these are normal phones?,took a picture with __,0.93,F,29
5,8244,cause_effect_prior,"""I just wish the weather was better.""",Patrick,object_mid,M,15,hats,blew away,Patrick left  15 hats  on a table on a windy day.,long_filler,How likely is it that these are normal hats?,left __ on a table on a windy day,0.26,F,30
5,4368,cause_effect_prior,"""Some of the songs rhymed.""",Charles,object_mid,M,15,songs,rhymed,Charles wrote  15 songs.,Some,How likely is it that these are normal songs?,wrote __,0.87,M,31
5,4770,cause_effect_prior,"""Some of the mirrors reflected the sunlight.""",Susan,object_high,F,15,mirrors,reflected the sunlight,Susan placed  15 mirrors  in the sun.,Some,How likely is it that these are normal mirrors?,placed __ in the sun,0.22,M,32
6,9283,cause_effect_prior,"""All of the matches burnt.""",Charles,object_high,M,15,matches,burnt,Charles threw  15 matches  into a fire.,All,How likely is it that these are normal matches?,threw __ into a fire,0.39,F,3
6,12568,cause_effect_prior,"""Typical.""",Betty,object_high,F,15,new cars,beeped,Betty left the lights on in  15 new cars.,short_filler,How likely is it that these are normal new cars?,left the lights on in __,0.98,F,4
6,7780,cause_effect_prior,"""That requires a lot of concentration.""",Samuel,object_high,M,15,bubbles,popped,Samuel poked  15 bubbles  with a pin.,long_filler,How likely is it that these are normal bubbles?,poked __ with a pin,0.42,M,5
6,4143,cause_effect_prior,"""None of the backpacks blew away.""",Steven,object_low,M,15,backpacks,blew away,Steven left  15 backpacks  on a table on a windy day.,None,How likely is it that these are normal backpacks?,left __ on a table on a windy day,0.6,F,6
6,2046,cause_effect_prior,"""Some of the shirts ripped.""",Helen,object_mid,F,15,shirts,ripped,Helen used  15 shirts  as dog toys.,Some,How likely is it that these are normal shirts?,used __ as dog toys,0.62,M,7
6,3773,cause_effect_prior,"""That looks kind of dangerous.""",Jerry,object_low,M,15,bicyclists,honked,Jerry cut off  15 bicyclists.,long_filler,How likely is it that these are normal bicyclists?,cut off __,0.95,F,8
6,2346,cause_effect_prior,"""Some of the pencils melted.""",Diane,object_low,F,15,pencils,melted,Diane left  15 pencils  in the hot sun.,Some,How likely is it that these are normal pencils?,left __ in the hot sun,0.09,F,9
6,5581,cause_effect_prior,"""None of the wheelchairs rolled.""",Kenneth,object_high,M,15,wheelchairs,rolled,Kenneth pushed  15 wheelchairs.,None,How likely is it that these are normal wheelchairs?,pushed __,0.2,M,10
6,4988,cause_effect_prior,"""Some of the kids laughed.""",Joseph,object_high,M,15,kids,laughed,Joseph told a joke to  15 kids.,Some,How likely is it that these are normal kids?,told a joke to __,0.99,F,11
6,2015,cause_effect_prior,"""None of the white carpets got stained.""",Angela,object_high,F,15,white carpets,got stained,Angela spilled red nail polish on  15 white carpets.,None,How likely is it that these are normal white carpets?,spilled red nail polish on __,0.29,F,12
6,2684,cause_effect_prior,"""Some of the cars stopped.""",Nicole,object_high,F,15,cars,stopped,Nicole pressed the brakes on  15 cars.,Some,How likely is it that these are normal cars?,pressed the brakes on __,0.77,F,13
6,4958,cause_effect_prior,"""Pretty normal.""",Deborah,object_mid,F,15,diamonds,reflected the sunlight,Deborah placed  15 diamonds  in the sun.,short_filler,How likely is it that these are normal diamonds?,placed __ in the sun,0.11,M,14
6,5202,cause_effect_prior,"""All of the CDs exploded.""",Brian,object_low,M,15,CDs,exploded,Brian heated up  15 CDs  in a microwave.,All,How likely is it that these are normal CDs?,heated up __ in a microwave,0.95,M,15
6,4261,cause_effect_prior,"""All of the marbles sank.""",Jacob,object_high,M,15,marbles,sank,Jacob threw  15 marbles  into a pool.,All,How likely is it that these are normal marbles?,threw __ into a pool,0.71,F,16
6,7785,cause_effect_prior,"""Some of the bike lights ran out of batteries.""",Jack,object_mid,M,15,bike lights,ran out of batteries,Jack left  15 bike lights  on (and unplugged) all day.,Some,How likely is it that these are normal bike lights?,left __ on (and unplugged) all day,0.92,F,17
6,2071,cause_effect_prior,"""Some people just love destruction.""",Brenda,object_mid,F,15,block towers,fell down,Brenda punched  15 block towers.,long_filler,How likely is it that these are normal block towers?,punched __,0.23,F,18
6,1286,cause_effect_prior,"""Some of the oreos dissolved.""",Ronald,object_mid,M,15,oreos,dissolved,Ronald put  15 oreos  in a bucket of water.,Some,How likely is it that these are normal oreos?,put __ in a bucket of water,0.7,F,19
6,4056,cause_effect_prior,"""Some of the poems rhymed.""",George,object_low,M,15,poems,rhymed,George wrote  15 poems.,Some,How likely is it that these are normal poems?,wrote __,0.7,F,20
6,3236,cause_effect_prior,"""Nothing out of the ordinary.""",Jason,object_mid,M,15,computers,lit up,Jason pressed the &quotecharon&quotechar button on  15 computers.,short_filler,How likely is it that these are normal computers?,pressed the &quotecharon&quotechar button on __,0.8,F,21
6,3198,cause_effect_prior,"""Nothing surprising there.""",Melissa,object_mid,F,15,boxes,broke,Melissa ran  15 boxes  over with a car.,short_filler,How likely is it that these are normal boxes?,ran __ over with a car,0.35,F,22
6,1382,cause_effect_prior,"""All of the birthday cards had the letter Z in them.""",Michelle,object_low,F,15,birthday cards,had the letter Z in them,Michelle wrote  15 birthday cards.,All,How likely is it that these are normal birthday cards?,wrote __,0.5,M,23
6,1488,cause_effect_prior,"""Some of the webcams flashed.""",Christopher,object_low,M,15,webcams,flashed,Christopher took a picture with  15 webcams.,Some,How likely is it that these are normal webcams?,took a picture with __,0.51,M,24
6,1942,cause_effect_prior,"""As usual.""",Margaret,object_mid,F,15,butterflies,ate the seeds,Margaret left seeds out for  15 butterflies.,short_filler,How likely is it that these are normal butterflies?,left seeds out for __,0.48,M,25
6,3972,cause_effect_prior,"""Some of the banana peels decomposed.""",Sharon,object_high,F,15,banana peels,decomposed,Sharon put  15 banana peels  in a compost pile for a month.,Some,How likely is it that these are normal banana peels?,put __ in a compost pile for a month,0.94,F,26
6,2553,cause_effect_prior,"""Some of the pancakes landed flat.""",Sarah,object_mid,F,15,pancakes,landed flat,Sarah tossed  15 pancakes.,Some,How likely is it that these are normal pancakes?,tossed __,0.04,M,27
6,1916,cause_effect_prior,"""That reminds me I need to visit my grandma.""",Dennis,object_mid,M,15,chocolate bars,froze,Dennis put  15 chocolate bars  in the freezer.,long_filler,How likely is it that these are normal chocolate bars?,put __ in the freezer,0.64,M,28
6,4611,cause_effect_prior,"""None of the stickers stuck.""",Gary,object_high,M,15,stickers,stuck,Gary glued  15 stickers  to a piece of paper.,None,How likely is it that these are normal stickers?,glued __ to a piece of paper,0.93,M,29
6,1943,cause_effect_prior,"""All of the bananas were green.""",Amanda,object_mid,F,15,bananas,were green,Amanda saw  15 bananas.,All,How likely is it that these are normal bananas?,saw __,0.73,F,30
6,2268,cause_effect_prior,"""What a strange thing to do.""",Nancy,object_low,F,15,baseballs,stuck to the wall,Nancy threw  15 baseballs  against a wall.,long_filler,How likely is it that these are normal baseballs?,threw __ against a wall,0.36,M,31
6,1753,cause_effect_prior,"""None of the candles exploded.""",James,object_low,M,15,candles,exploded,James lit  15 candles.,None,How likely is it that these are normal candles?,lit __,0.48,F,32
7,10692,cause_effect_prior,"""I just don&quotechart have the patience to write one of those.""",Brandon,object_high,M,15,novels,had the letter Z in them,Brandon wrote  15 novels.,long_filler,How likely is it that these are normal novels?,wrote __,0.9,M,3
7,7163,cause_effect_prior,"""That reminds me I need to visit my grandma.""",Margaret,object_mid,F,15,chocolate bars,froze,Margaret put  15 chocolate bars  in the freezer.,long_filler,How likely is it that these are normal chocolate bars?,put __ in the freezer,0.84,F,4
7,5864,cause_effect_prior,"""Some of the boxes broke.""",Robert,object_mid,M,15,boxes,broke,Robert ran  15 boxes  over with a car.,Some,How likely is it that these are normal boxes?,ran __ over with a car,0.25,M,5
7,7769,cause_effect_prior,"""None of the butterflies ate the seeds.""",Paul,object_mid,M,15,butterflies,ate the seeds,Paul left seeds out for  15 butterflies.,None,How likely is it that these are normal butterflies?,left seeds out for __,1,M,6
7,6711,cause_effect_prior,"""Some of the computers lit up.""",Emily,object_mid,F,15,computers,lit up,Emily pressed the &quotecharon&quotechar button on  15 computers.,Some,How likely is it that these are normal computers?,pressed the &quotecharon&quotechar button on __,0.48,F,7
7,5808,cause_effect_prior,"""Some of the beads stuck.""",Richard,object_low,M,15,beads,stuck,Richard glued  15 beads  to a piece of paper.,Some,How likely is it that these are normal beads?,glued __ to a piece of paper,0.8,M,8
7,6012,cause_effect_prior,"""Some of the poems rhymed.""",Joyce,object_low,F,15,poems,rhymed,Joyce wrote  15 poems.,Some,How likely is it that these are normal poems?,wrote __,1,F,9
7,9076,cause_effect_prior,"""Some of the bike lights ran out of batteries.""",Gregory,object_mid,M,15,bike lights,ran out of batteries,Gregory left  15 bike lights  on (and unplugged) all day.,Some,How likely is it that these are normal bike lights?,left __ on (and unplugged) all day,0.9,M,10
7,5385,cause_effect_prior,"""I love throwing stuff, too.""",Diane,object_mid,F,15,pancakes,landed flat,Diane tossed  15 pancakes.,long_filler,How likely is it that these are normal pancakes?,tossed __,1,M,11
7,6396,cause_effect_prior,"""Some of the comedians laughed.""",Julie,object_mid,F,15,comedians,laughed,Julie told a joke to  15 comedians.,Some,How likely is it that these are normal comedians?,told a joke to __,1,M,12
7,4427,cause_effect_prior,"""All of the bus drivers honked.""",Michelle,object_mid,F,15,bus drivers,honked,Michelle cut off  15 bus drivers.,All,How likely is it that these are normal bus drivers?,cut off __,1,M,13
7,5922,cause_effect_prior,"""All of the card towers fell down.""",Sarah,object_high,F,15,card towers,fell down,Sarah punched  15 card towers.,All,How likely is it that these are normal card towers?,punched __,0.95,M,14
7,3672,cause_effect_prior,"""All of the napkins blew away.""",Alexander,object_high,M,15,napkins,blew away,Alexander left  15 napkins  on a table on a windy day.,All,How likely is it that these are normal napkins?,left __ on a table on a windy day,1,M,15
7,4282,cause_effect_prior,"""None of the webcams flashed.""",Cynthia,object_low,F,15,webcams,flashed,Cynthia took a picture with  15 webcams.,None,How likely is it that these are normal webcams?,took a picture with __,0.53,F,16
7,2891,cause_effect_prior,"""Some of the matches burnt.""",James,object_high,M,15,matches,burnt,James threw  15 matches  into a fire.,Some,How likely is it that these are normal matches?,threw __ into a fire,0.4,F,17
7,7120,cause_effect_prior,"""Nothing surprising there.""",Kimberly,object_mid,F,15,cakes,stuck to the wall,Kimberly threw  15 cakes  against a wall.,short_filler,How likely is it that these are normal cakes?,threw __ against a wall,0.75,M,18
7,4733,cause_effect_prior,"""Some of the ice cubes melted.""",Mary,object_high,F,15,ice cubes,melted,Mary left  15 ice cubes  in the hot sun.,Some,How likely is it that these are normal ice cubes?,left __ in the hot sun,0.21,M,19
7,5478,cause_effect_prior,"""None of the books ripped.""",Jack,object_high,M,15,books,ripped,Jack used  15 books  as dog toys.,None,How likely is it that these are normal books?,used __ as dog toys,0.08,F,20
7,3266,cause_effect_prior,"""Some of the CDs exploded.""",Dorothy,object_low,F,15,CDs,exploded,Dorothy heated up  15 CDs  in a microwave.,Some,How likely is it that these are normal CDs?,heated up __ in a microwave,0.8,F,21
7,5493,cause_effect_prior,"""None of the pinecones decomposed.""",Rachel,object_mid,F,15,pinecones,decomposed,Rachel put  15 pinecones  in a compost pile for a month.,None,How likely is it that these are normal pinecones?,put __ in a compost pile for a month,0.56,F,22
7,5986,cause_effect_prior,"""As usual.""",Lisa,object_mid,F,15,old cars,beeped,Lisa left the lights on in  15 old cars.,short_filler,How likely is it that these are normal old cars?,left the lights on in __,0.81,M,23
7,3322,cause_effect_prior,"""All of the clovers were green.""",John,object_high,M,15,clovers,were green,John saw  15 clovers.,All,How likely is it that these are normal clovers?,saw __,1,F,24
7,3638,cause_effect_prior,"""Pushing stuff is so much fun.""",Susan,object_mid,F,15,shopping carts,rolled,Susan pushed  15 shopping carts.,long_filler,How likely is it that these are normal shopping carts?,pushed __,1,M,25
7,4301,cause_effect_prior,"""Pretty normal.""",Larry,object_high,M,15,sugar cubes,dissolved,Larry put  15 sugar cubes  in a bucket of water.,short_filler,How likely is it that these are normal sugar cubes?,put __ in a bucket of water,1,M,26
7,2765,cause_effect_prior,"""Nothing out of the ordinary.""",Timothy,object_high,M,15,marbles,sank,Timothy threw  15 marbles  into a pool.,short_filler,How likely is it that these are normal marbles?,threw __ into a pool,1,M,27
7,5762,cause_effect_prior,"""Some of the mirrors reflected the sunlight.""",Kevin,object_high,M,15,mirrors,reflected the sunlight,Kevin placed  15 mirrors  in the sun.,Some,How likely is it that these are normal mirrors?,placed __ in the sun,0.3,M,28
7,5687,cause_effect_prior,"""Who came up with that idea?""",Justin,object_mid,M,15,fireworks,exploded,Justin lit  15 fireworks.,long_filler,How likely is it that these are normal fireworks?,lit __,0.71,F,29
7,4135,cause_effect_prior,"""None of the cars stopped.""",Jason,object_high,M,15,cars,stopped,Jason pressed the brakes on  15 cars.,None,How likely is it that these are normal cars?,pressed the brakes on __,0.09,M,30
7,4069,cause_effect_prior,"""All of the bubbles popped.""",Ruth,object_high,F,15,bubbles,popped,Ruth poked  15 bubbles  with a pin.,All,How likely is it that these are normal bubbles?,poked __ with a pin,0.98,F,31
7,5448,cause_effect_prior,"""Typical.""",Carol,object_low,F,15,white tablecloths,got stained,Carol spilled red nail polish on  15 white tablecloths.,short_filler,How likely is it that these are normal white tablecloths?,spilled red nail polish on __,0.92,F,32
8,11431,cause_effect_prior,"""None of the balls of tin foil exploded.""",Julie,object_mid,F,15,balls of tin foil,exploded,Julie heated up  15 balls of tin foil  in a microwave.,None,How likely is it that these are normal balls of tin foil?,heated up __ in a microwave,0.79,M,3
8,14031,cause_effect_prior,"""None of the pinecones decomposed.""",Mary,object_mid,F,15,pinecones,decomposed,Mary put  15 pinecones  in a compost pile for a month.,None,How likely is it that these are normal pinecones?,put __ in a compost pile for a month,0.4,F,4
8,7474,cause_effect_prior,"""All of the phones flashed.""",Eric,object_mid,M,15,phones,flashed,Eric took a picture with  15 phones.,All,How likely is it that these are normal phones?,took a picture with __,0.84,M,5
8,9624,cause_effect_prior,"""I just don&quotechart have the patience to write one of those.""",Rebecca,object_mid,F,15,love notes,had the letter Z in them,Rebecca wrote  15 love notes.,long_filler,How likely is it that these are normal love notes?,wrote __,0.75,M,6
8,9270,cause_effect_prior,"""All of the white carpets got stained.""",Linda,object_high,F,15,white carpets,got stained,Linda spilled red nail polish on  15 white carpets.,All,How likely is it that these are normal white carpets?,spilled red nail polish on __,1,M,7
8,8258,cause_effect_prior,"""Typical.""",Samuel,object_high,M,15,matches,burnt,Samuel threw  15 matches  into a fire.,short_filler,How likely is it that these are normal matches?,threw __ into a fire,0.92,M,8
8,7054,cause_effect_prior,"""All of the beads stuck.""",Janet,object_low,F,15,beads,stuck,Janet glued  15 beads  to a piece of paper.,All,How likely is it that these are normal beads?,glued __ to a piece of paper,1,M,9
8,8604,cause_effect_prior,"""Why not just take them inside?""",Anna,object_mid,F,15,diamonds,reflected the sunlight,Anna placed  15 diamonds  in the sun.,long_filler,How likely is it that these are normal diamonds?,placed __ in the sun,0.65,F,10
8,7222,cause_effect_prior,"""None of the napkins blew away.""",Rachel,object_high,F,15,napkins,blew away,Rachel left  15 napkins  on a table on a windy day.,None,How likely is it that these are normal napkins?,left __ on a table on a windy day,0.11,F,11
8,6501,cause_effect_prior,"""As usual.""",Samantha,object_high,F,15,wheelchairs,rolled,Samantha pushed  15 wheelchairs.,short_filler,How likely is it that these are normal wheelchairs?,pushed __,0.91,F,12
8,7689,cause_effect_prior,"""Pretty normal.""",Jessica,object_low,F,15,bottles of hand soap,froze,Jessica put  15 bottles of hand soap  in the freezer.,short_filler,How likely is it that these are normal bottles of hand soap?,put __ in the freezer,0.16,M,13
8,5679,cause_effect_prior,"""None of the sunglasses broke.""",Joyce,object_high,F,15,sunglasses,broke,Joyce ran  15 sunglasses  over with a car.,None,How likely is it that these are normal sunglasses?,ran __ over with a car,0.18,M,14
8,8961,cause_effect_prior,"""Some of the crayons melted.""",Matthew,object_mid,M,15,crayons,melted,Matthew left  15 crayons  in the hot sun.,Some,How likely is it that these are normal crayons?,left __ in the hot sun,0.35,F,15
8,8101,cause_effect_prior,"""Nothing surprising there.""",Nicole,object_high,F,15,laptops,ran out of batteries,Nicole left  15 laptops  on (and unplugged) all day.,short_filler,How likely is it that these are normal laptops?,left __ on (and unplugged) all day,0.75,F,16
8,7465,cause_effect_prior,"""Some of the houses beeped.""",Jacob,object_low,M,15,houses,beeped,Jacob left the lights on in  15 houses.,Some,How likely is it that these are normal houses?,left the lights on in __,0.09,M,17
8,3919,cause_effect_prior,"""All of the balloons popped.""",Justin,object_mid,M,15,balloons,popped,Justin poked  15 balloons  with a pin.,All,How likely is it that these are normal balloons?,poked __ with a pin,1,M,18
8,6699,cause_effect_prior,"""Some of the fireworks exploded.""",Mark,object_mid,M,15,fireworks,exploded,Mark lit  15 fireworks.,Some,How likely is it that these are normal fireworks?,lit __,0.6,M,19
8,7175,cause_effect_prior,"""None of the dogs ate the seeds.""",Jennifer,object_low,F,15,dogs,ate the seeds,Jennifer left seeds out for  15 dogs.,None,How likely is it that these are normal dogs?,left seeds out for __,0.8,M,20
8,6147,cause_effect_prior,"""Some of the comedians laughed.""",Amanda,object_mid,F,15,comedians,laughed,Amanda told a joke to  15 comedians.,Some,How likely is it that these are normal comedians?,told a joke to __,0.76,F,21
8,5127,cause_effect_prior,"""Some of the clovers were green.""",Kenneth,object_high,M,15,clovers,were green,Kenneth saw  15 clovers.,Some,How likely is it that these are normal clovers?,saw __,0.62,F,22
8,4827,cause_effect_prior,"""Some of the shirts ripped.""",Emily,object_mid,F,15,shirts,ripped,Emily used  15 shirts  as dog toys.,Some,How likely is it that these are normal shirts?,used __ as dog toys,0.91,M,23
8,8101,cause_effect_prior,"""I wish we could just say &quotecharon&quotechar.""",Dorothy,object_mid,F,15,computers,lit up,Dorothy pressed the &quotecharon&quotechar button on  15 computers.,long_filler,How likely is it that these are normal computers?,pressed the &quotecharon&quotechar button on __,1,M,24
8,6391,cause_effect_prior,"""Some of the marbles sank.""",Melissa,object_high,F,15,marbles,sank,Melissa threw  15 marbles  into a pool.,Some,How likely is it that these are normal marbles?,threw __ into a pool,0.21,F,25
8,13547,cause_effect_prior,"""There are people starving in the world.""",Benjamin,object_low,M,15,carrots,dissolved,Benjamin put  15 carrots  in a bucket of water.,long_filler,How likely is it that these are normal carrots?,put __ in a bucket of water,0.86,F,26
8,10233,cause_effect_prior,"""Some of the bicycles stopped.""",Alexander,object_low,M,15,bicycles,stopped,Alexander pressed the brakes on  15 bicycles.,Some,How likely is it that these are normal bicycles?,pressed the brakes on __,0.58,F,27
8,7456,cause_effect_prior,"""Nothing out of the ordinary.""",Joshua,object_high,M,15,taxi drivers,honked,Joshua cut off  15 taxi drivers.,short_filler,How likely is it that these are normal taxi drivers?,cut off __,0.76,M,28
8,4564,cause_effect_prior,"""Some of the pancakes landed flat.""",William,object_mid,M,15,pancakes,landed flat,William tossed  15 pancakes.,Some,How likely is it that these are normal pancakes?,tossed __,0.9,M,29
8,5490,cause_effect_prior,"""All of the baseballs stuck to the wall.""",Heather,object_low,F,15,baseballs,stuck to the wall,Heather threw  15 baseballs  against a wall.,All,How likely is it that these are normal baseballs?,threw __ against a wall,0.02,M,30
8,6241,cause_effect_prior,"""It&quotechars so pretty.""",Kimberly,object_mid,F,15,songs,rhymed,Kimberly wrote  15 songs.,long_filler,How likely is it that these are normal songs?,wrote __,0.83,M,31
8,7438,cause_effect_prior,"""Some of the card towers fell down.""",Kathleen,object_high,F,15,card towers,fell down,Kathleen punched  15 card towers.,Some,How likely is it that these are normal card towers?,punched __,0.62,F,32
9,4291,cause_effect_prior,"""As usual.""",Virginia,object_mid,F,15,bus drivers,honked,Virginia cut off  15 bus drivers.,short_filler,How likely is it that these are normal bus drivers?,cut off __,0.92,F,3
9,2616,cause_effect_prior,"""I wish we could just say &quotecharon&quotechar.""",Joyce,object_mid,F,15,computers,lit up,Joyce pressed the &quotecharon&quotechar button on  15 computers.,long_filler,How likely is it that these are normal computers?,pressed the &quotecharon&quotechar button on __,0.48,F,4
9,1649,cause_effect_prior,"""Some of the carrots dissolved.""",Timothy,object_low,M,15,carrots,dissolved,Timothy put  15 carrots  in a bucket of water.,Some,How likely is it that these are normal carrots?,put __ in a bucket of water,0.54,F,5
9,2125,cause_effect_prior,"""None of the phones ran out of batteries.""",Stephanie,object_low,F,15,phones,ran out of batteries,Stephanie left  15 phones  on (and unplugged) all day.,None,How likely is it that these are normal phones?,left __ on (and unplugged) all day,0.39,M,6
9,2789,cause_effect_prior,"""Nothing out of the ordinary.""",Edward,object_high,M,15,coins,landed flat,Edward tossed  15 coins.,short_filler,How likely is it that these are normal coins?,tossed __,0.55,M,7
9,1696,cause_effect_prior,"""All of the balloons popped.""",Shirley,object_mid,F,15,balloons,popped,Shirley poked  15 balloons  with a pin.,All,How likely is it that these are normal balloons?,poked __ with a pin,0.56,M,8
9,1815,cause_effect_prior,"""Some of the cameras flashed.""",Emma,object_high,F,15,cameras,flashed,Emma took a picture with  15 cameras.,Some,How likely is it that these are normal cameras?,took a picture with __,0.52,F,9
9,1220,cause_effect_prior,"""None of the block towers fell down.""",Ruth,object_mid,F,15,block towers,fell down,Ruth punched  15 block towers.,None,How likely is it that these are normal block towers?,punched __,0.57,M,10
9,1130,cause_effect_prior,"""Pretty normal.""",Joseph,object_low,M,15,pencils,melted,Joseph left  15 pencils  in the hot sun.,short_filler,How likely is it that these are normal pencils?,left __ in the hot sun,0.51,F,11
9,1032,cause_effect_prior,"""Some of the mirrors reflected the sunlight.""",Sharon,object_high,F,15,mirrors,reflected the sunlight,Sharon placed  15 mirrors  in the sun.,Some,How likely is it that these are normal mirrors?,placed __ in the sun,0.54,M,12
9,991,cause_effect_prior,"""Some of the comedians laughed.""",Dennis,object_mid,M,15,comedians,laughed,Dennis told a joke to  15 comedians.,Some,How likely is it that these are normal comedians?,told a joke to __,0.54,F,13
9,1679,cause_effect_prior,"""None of the strawberries were green.""",Emily,object_low,F,15,strawberries,were green,Emily saw  15 strawberries.,None,How likely is it that these are normal strawberries?,saw __,0.5,M,14
9,1455,cause_effect_prior,"""Some of the logs broke.""",Brian,object_low,M,15,logs,broke,Brian ran  15 logs  over with a car.,Some,How likely is it that these are normal logs?,ran __ over with a car,0.59,M,15
9,1592,cause_effect_prior,"""It&quotechars so pretty.""",Tyler,object_low,M,15,poems,rhymed,Tyler wrote  15 poems.,long_filler,How likely is it that these are normal poems?,wrote __,0.44,M,16
9,1752,cause_effect_prior,"""Typical.""",Gary,object_mid,M,15,shirts,ripped,Gary used  15 shirts  as dog toys.,short_filler,How likely is it that these are normal shirts?,used __ as dog toys,0.53,M,17
9,1685,cause_effect_prior,"""Some of the cups sank.""",Jacob,object_mid,M,15,cups,sank,Jacob threw  15 cups  into a pool.,Some,How likely is it that these are normal cups?,threw __ into a pool,0.53,F,18
9,1508,cause_effect_prior,"""None of the baseballs stuck to the wall.""",Brenda,object_low,F,15,baseballs,stuck to the wall,Brenda threw  15 baseballs  against a wall.,None,How likely is it that these are normal baseballs?,threw __ against a wall,0.5,F,19
9,2415,cause_effect_prior,"""All of the houses beeped.""",Scott,object_low,M,15,houses,beeped,Scott left the lights on in  15 houses.,All,How likely is it that these are normal houses?,left the lights on in __,0.37,M,20
9,2063,cause_effect_prior,"""Pushing stuff is so much fun.""",Angela,object_high,F,15,wheelchairs,rolled,Angela pushed  15 wheelchairs.,long_filler,How likely is it that these are normal wheelchairs?,pushed __,0.6,F,21
9,1527,cause_effect_prior,"""Nothing surprising there.""",Mark,object_mid,M,15,butterflies,ate the seeds,Mark left seeds out for  15 butterflies.,short_filler,How likely is it that these are normal butterflies?,left seeds out for __,0.58,F,22
9,1143,cause_effect_prior,"""All of the novels had the letter Z in them.""",Michael,object_high,M,15,novels,had the letter Z in them,Michael wrote  15 novels.,All,How likely is it that these are normal novels?,wrote __,0.53,M,23
9,1321,cause_effect_prior,"""Some of the rocks burnt.""",Karen,object_low,F,15,rocks,burnt,Karen threw  15 rocks  into a fire.,Some,How likely is it that these are normal rocks?,threw __ into a fire,0.52,F,24
9,3992,cause_effect_prior,"""Some of the white shirts got stained.""",Betty,object_mid,F,15,white shirts,got stained,Betty spilled red nail polish on  15 white shirts.,Some,How likely is it that these are normal white shirts?,spilled red nail polish on __,0.27,F,25
9,4447,cause_effect_prior,"""Some of the gas tanks exploded.""",Thomas,object_high,M,15,gas tanks,exploded,Thomas lit  15 gas tanks.,Some,How likely is it that these are normal gas tanks?,lit __,0.16,M,26
9,2281,cause_effect_prior,"""All of the bicycles stopped.""",Sandra,object_low,F,15,bicycles,stopped,Sandra pressed the brakes on  15 bicycles.,All,How likely is it that these are normal bicycles?,pressed the brakes on __,0.35,F,27
9,3484,cause_effect_prior,"""That reminds me I need to visit my grandma.""",Carolyn,object_high,F,15,berries,froze,Carolyn put  15 berries  in the freezer.,long_filler,How likely is it that these are normal berries?,put __ in the freezer,0.87,M,28
9,1487,cause_effect_prior,"""It looks like a zebra.""",Patrick,object_high,M,15,stickers,stuck,Patrick glued  15 stickers  to a piece of paper.,long_filler,How likely is it that these are normal stickers?,glued __ to a piece of paper,0.75,F,29
9,1787,cause_effect_prior,"""None of the soda cans decomposed.""",Steven,object_low,M,15,soda cans,decomposed,Steven put  15 soda cans  in a compost pile for a month.,None,How likely is it that these are normal soda cans?,put __ in a compost pile for a month,0.76,F,30
9,1374,cause_effect_prior,"""Some of the napkins blew away.""",Cynthia,object_high,F,15,napkins,blew away,Cynthia left  15 napkins  on a table on a windy day.,Some,How likely is it that these are normal napkins?,left __ on a table on a windy day,0.41,M,31
9,1393,cause_effect_prior,"""All of the eggs exploded.""",Frank,object_high,M,15,eggs,exploded,Frank heated up  15 eggs  in a microwave.,All,How likely is it that these are normal eggs?,heated up __ in a microwave,0.47,M,32
10,13605,cause_effect_prior,"""Why not just take them inside?""",George,object_low,M,15,phone screens,reflected the sunlight,George placed  15 phone screens  in the sun.,long_filler,How likely is it that these are normal phone screens?,placed __ in the sun,0.12,M,3
10,8376,cause_effect_prior,"""All of the houses beeped.""",Shirley,object_low,F,15,houses,beeped,Shirley left the lights on in  15 houses.,All,How likely is it that these are normal houses?,left the lights on in __,0.16,F,4
10,5984,cause_effect_prior,"""All of the shopping carts rolled.""",Raymond,object_mid,M,15,shopping carts,rolled,Raymond pushed  15 shopping carts.,All,How likely is it that these are normal shopping carts?,pushed __,0.99,M,5
10,6230,cause_effect_prior,"""All of the eggs popped.""",Brenda,object_low,F,15,eggs,popped,Brenda poked  15 eggs  with a pin.,All,How likely is it that these are normal eggs?,poked __ with a pin,0.08,F,6
10,7493,cause_effect_prior,"""Nothing surprising there.""",Susan,object_high,F,15,books,ripped,Susan used  15 books  as dog toys.,short_filler,How likely is it that these are normal books?,used __ as dog toys,0.98,F,7
10,5025,cause_effect_prior,"""None of the CDs exploded.""",Jonathan,object_low,M,15,CDs,exploded,Jonathan heated up  15 CDs  in a microwave.,None,How likely is it that these are normal CDs?,heated up __ in a microwave,0.99,F,8
10,6968,cause_effect_prior,"""Some of the pieces of gum stuck to the wall.""",Kathleen,object_high,F,15,pieces of gum,stuck to the wall,Kathleen threw  15 pieces of gum  against a wall.,Some,How likely is it that these are normal pieces of gum?,threw __ against a wall,0.98,F,9
10,7092,cause_effect_prior,"""Nothing out of the ordinary.""",Anna,object_low,F,15,lawyers,laughed,Anna told a joke to  15 lawyers.,short_filler,How likely is it that these are normal lawyers?,told a joke to __,0.98,M,10
10,10984,cause_effect_prior,"""None of the sequins stuck.""",Nicholas,object_mid,M,15,sequins,stuck,Nicholas glued  15 sequins  to a piece of paper.,None,How likely is it that these are normal sequins?,glued __ to a piece of paper,0.49,M,11
10,9541,cause_effect_prior,"""I love throwing stuff, too.""",Ronald,object_mid,M,15,pancakes,landed flat,Ronald tossed  15 pancakes.,long_filler,How likely is it that these are normal pancakes?,tossed __,0.98,F,12
10,6123,cause_effect_prior,"""As usual.""",Jennifer,object_low,F,15,carrots,dissolved,Jennifer put  15 carrots  in a bucket of water.,short_filler,How likely is it that these are normal carrots?,put __ in a bucket of water,0.99,F,13
10,3992,cause_effect_prior,"""None of the rocks burnt.""",Amanda,object_low,F,15,rocks,burnt,Amanda threw  15 rocks  into a fire.,None,How likely is it that these are normal rocks?,threw __ into a fire,0.98,M,14
10,4873,cause_effect_prior,"""Some of the logs broke.""",Melissa,object_low,F,15,logs,broke,Melissa ran  15 logs  over with a car.,Some,How likely is it that these are normal logs?,ran __ over with a car,0.98,M,15
10,6127,cause_effect_prior,"""Typical.""",David,object_high,M,15,marbles,sank,David threw  15 marbles  into a pool.,short_filler,How likely is it that these are normal marbles?,threw __ into a pool,0.99,F,16
10,6178,cause_effect_prior,"""It&quotechars so pretty.""",Carolyn,object_high,F,15,limericks,rhymed,Carolyn wrote  15 limericks.,long_filler,How likely is it that these are normal limericks?,wrote __,0.02,F,17
10,4575,cause_effect_prior,"""I wish we could just say &quotecharon&quotechar.""",Jason,object_mid,M,15,computers,lit up,Jason pressed the &quotecharon&quotechar button on  15 computers.,long_filler,How likely is it that these are normal computers?,pressed the &quotecharon&quotechar button on __,0.98,M,18
10,6254,cause_effect_prior,"""Some of the novels had the letter Z in them.""",Frank,object_high,M,15,novels,had the letter Z in them,Frank wrote  15 novels.,Some,How likely is it that these are normal novels?,wrote __,0.98,M,19
10,5628,cause_effect_prior,"""None of the banana peels decomposed.""",Justin,object_high,M,15,banana peels,decomposed,Justin put  15 banana peels  in a compost pile for a month.,None,How likely is it that these are normal banana peels?,put __ in a compost pile for a month,0.02,M,20
10,4345,cause_effect_prior,"""Some of the clovers were green.""",Dennis,object_high,M,15,clovers,were green,Dennis saw  15 clovers.,Some,How likely is it that these are normal clovers?,saw __,0.5,F,21
10,4257,cause_effect_prior,"""Some of the hats blew away.""",Ruth,object_mid,F,15,hats,blew away,Ruth left  15 hats  on a table on a windy day.,Some,How likely is it that these are normal hats?,left __ on a table on a windy day,0.98,F,22
10,5378,cause_effect_prior,"""Who came up with that idea?""",Jerry,object_high,M,15,gas tanks,exploded,Jerry lit  15 gas tanks.,long_filler,How likely is it that these are normal gas tanks?,lit __,0.98,M,23
10,4610,cause_effect_prior,"""All of the ice cubes melted.""",Scott,object_high,M,15,ice cubes,melted,Scott left  15 ice cubes  in the hot sun.,All,How likely is it that these are normal ice cubes?,left __ in the hot sun,0.98,F,24
10,5654,cause_effect_prior,"""Some of the phones flashed.""",William,object_mid,M,15,phones,flashed,William took a picture with  15 phones.,Some,How likely is it that these are normal phones?,took a picture with __,0.98,F,25
10,6618,cause_effect_prior,"""Some of the dogs ate the seeds.""",Virginia,object_low,F,15,dogs,ate the seeds,Virginia left seeds out for  15 dogs.,Some,How likely is it that these are normal dogs?,left seeds out for __,0.97,F,26
10,4933,cause_effect_prior,"""None of the berries froze.""",Anthony,object_high,M,15,berries,froze,Anthony put  15 berries  in the freezer.,None,How likely is it that these are normal berries?,put __ in the freezer,0.04,F,27
10,5333,cause_effect_prior,"""Some of the laptops ran out of batteries.""",Rachel,object_high,F,15,laptops,ran out of batteries,Rachel left  15 laptops  on (and unplugged) all day.,Some,How likely is it that these are normal laptops?,left __ on (and unplugged) all day,0.97,F,28
10,6900,cause_effect_prior,"""Pretty normal.""",Tyler,object_high,M,15,taxi drivers,honked,Tyler cut off  15 taxi drivers.,short_filler,How likely is it that these are normal taxi drivers?,cut off __,0.5,M,29
10,7205,cause_effect_prior,"""Some of the card towers fell down.""",Gary,object_high,M,15,card towers,fell down,Gary punched  15 card towers.,Some,How likely is it that these are normal card towers?,punched __,0.04,M,30
10,3847,cause_effect_prior,"""All of the cars stopped.""",Betty,object_high,F,15,cars,stopped,Betty pressed the brakes on  15 cars.,All,How likely is it that these are normal cars?,pressed the brakes on __,0.99,F,31
10,5341,cause_effect_prior,"""Some of the white tablecloths got stained.""",Rebecca,object_low,F,15,white tablecloths,got stained,Rebecca spilled red nail polish on  15 white tablecloths.,Some,How likely is it that these are normal white tablecloths?,spilled red nail polish on __,0.08,M,32
11,13232,cause_effect_prior,"""None of the hats blew away.""",Ryan,object_mid,M,15,hats,blew away,Ryan left  15 hats  on a table on a windy day.,None,How likely is it that these are normal hats?,left __ on a table on a windy day,0.09,F,3
11,7655,cause_effect_prior,"""Typical.""",Joyce,object_low,F,15,baseballs,stuck to the wall,Joyce threw  15 baseballs  against a wall.,short_filler,How likely is it that these are normal baseballs?,threw __ against a wall,0.97,M,4
11,6702,cause_effect_prior,"""Some of the books ripped.""",Diane,object_high,F,15,books,ripped,Diane used  15 books  as dog toys.,Some,How likely is it that these are normal books?,used __ as dog toys,0.95,F,5
11,12129,cause_effect_prior,"""All of the old cars beeped.""",Laura,object_mid,F,15,old cars,beeped,Laura left the lights on in  15 old cars.,All,How likely is it that these are normal old cars?,left the lights on in __,0.09,F,6
11,5176,cause_effect_prior,"""All of the computers lit up.""",Justin,object_mid,M,15,computers,lit up,Justin pressed the &quotecharon&quotechar button on  15 computers.,All,How likely is it that these are normal computers?,pressed the &quotecharon&quotechar button on __,0.94,M,7
11,10197,cause_effect_prior,"""Some of the shopping carts rolled.""",Richard,object_mid,M,15,shopping carts,rolled,Richard pushed  15 shopping carts.,Some,How likely is it that these are normal shopping carts?,pushed __,0.61,F,8
11,10053,cause_effect_prior,"""Some of the oreos dissolved.""",Amy,object_mid,F,15,oreos,dissolved,Amy put  15 oreos  in a bucket of water.,Some,How likely is it that these are normal oreos?,put __ in a bucket of water,0.76,M,9
11,9005,cause_effect_prior,"""Some of the bicyclists honked.""",Michelle,object_low,F,15,bicyclists,honked,Michelle cut off  15 bicyclists.,Some,How likely is it that these are normal bicyclists?,cut off __,0.19,M,10
11,7977,cause_effect_prior,"""That&quotechars one way of spending your free time.""",Thomas,object_high,M,15,eggs,exploded,Thomas heated up  15 eggs  in a microwave.,long_filler,How likely is it that these are normal eggs?,heated up __ in a microwave,0.63,M,11
11,8653,cause_effect_prior,"""None of the white tablecloths got stained.""",Kenneth,object_low,M,15,white tablecloths,got stained,Kenneth spilled red nail polish on  15 white tablecloths.,None,How likely is it that these are normal white tablecloths?,spilled red nail polish on __,0.01,M,12
11,7667,cause_effect_prior,"""It looks like a zebra.""",Matthew,object_high,M,15,stickers,stuck,Matthew glued  15 stickers  to a piece of paper.,long_filler,How likely is it that these are normal stickers?,glued __ to a piece of paper,0.43,M,13
11,6180,cause_effect_prior,"""None of the phone screens reflected the sunlight.""",Donna,object_low,F,15,phone screens,reflected the sunlight,Donna placed  15 phone screens  in the sun.,None,How likely is it that these are normal phone screens?,placed __ in the sun,0.17,F,14
11,6373,cause_effect_prior,"""Some of the notebooks landed flat.""",Kimberly,object_low,F,15,notebooks,landed flat,Kimberly tossed  15 notebooks.,Some,How likely is it that these are normal notebooks?,tossed __,0.83,F,15
11,8062,cause_effect_prior,"""Some of the card towers fell down.""",Mark,object_high,M,15,card towers,fell down,Mark punched  15 card towers.,Some,How likely is it that these are normal card towers?,punched __,0.43,M,16
11,7076,cause_effect_prior,"""Nothing surprising there.""",Samuel,object_high,M,15,birds,ate the seeds,Samuel left seeds out for  15 birds.,short_filler,How likely is it that these are normal birds?,left seeds out for __,1,M,17
11,4183,cause_effect_prior,"""Nothing out of the ordinary.""",Daniel,object_high,M,15,cameras,flashed,Daniel took a picture with  15 cameras.,short_filler,How likely is it that these are normal cameras?,took a picture with __,0.97,F,18
11,5456,cause_effect_prior,"""None of the gas tanks exploded.""",Robert,object_high,M,15,gas tanks,exploded,Robert lit  15 gas tanks.,None,How likely is it that these are normal gas tanks?,lit __,0,F,19
11,5545,cause_effect_prior,"""Some of the bottles of hand soap froze.""",Brandon,object_low,M,15,bottles of hand soap,froze,Brandon put  15 bottles of hand soap  in the freezer.,Some,How likely is it that these are normal bottles of hand soap?,put __ in the freezer,0.63,M,20
11,9334,cause_effect_prior,"""So many parts need to work for us to not die.""",Anthony,object_mid,M,15,motorcycles,stopped,Anthony pressed the brakes on  15 motorcycles.,long_filler,How likely is it that these are normal motorcycles?,pressed the brakes on __,0.63,M,21
11,7862,cause_effect_prior,"""All of the poems rhymed.""",Andrew,object_low,M,15,poems,rhymed,Andrew wrote  15 poems.,All,How likely is it that these are normal poems?,wrote __,0.85,M,22
11,7743,cause_effect_prior,"""That requires a lot of concentration.""",George,object_mid,M,15,balloons,popped,George poked  15 balloons  with a pin.,long_filler,How likely is it that these are normal balloons?,poked __ with a pin,0.79,F,23
11,9604,cause_effect_prior,"""All of the pinecones decomposed.""",Rachel,object_mid,F,15,pinecones,decomposed,Rachel put  15 pinecones  in a compost pile for a month.,All,How likely is it that these are normal pinecones?,put __ in a compost pile for a month,0.78,F,24
11,6521,cause_effect_prior,"""Some of the ice cubes melted.""",Tyler,object_high,M,15,ice cubes,melted,Tyler left  15 ice cubes  in the hot sun.,Some,How likely is it that these are normal ice cubes?,left __ in the hot sun,0.26,F,25
11,4084,cause_effect_prior,"""Some of the cups sank.""",Jacob,object_mid,M,15,cups,sank,Jacob threw  15 cups  into a pool.,Some,How likely is it that these are normal cups?,threw __ into a pool,0.69,F,26
11,4196,cause_effect_prior,"""All of the boxes broke.""",Emily,object_mid,F,15,boxes,broke,Emily ran  15 boxes  over with a car.,All,How likely is it that these are normal boxes?,ran __ over with a car,0.98,M,27
11,9772,cause_effect_prior,"""I guess once a jokester, always a jokester.""",Steven,object_low,M,15,lawyers,laughed,Steven told a joke to  15 lawyers.,long_filler,How likely is it that these are normal lawyers?,told a joke to __,0.76,F,28
11,7130,cause_effect_prior,"""None of the bananas were green.""",Nancy,object_mid,F,15,bananas,were green,Nancy saw  15 bananas.,None,How likely is it that these are normal bananas?,saw __,0.56,F,29
11,5063,cause_effect_prior,"""Some of the books burnt.""",Donald,object_mid,M,15,books,burnt,Donald threw  15 books  into a fire.,Some,How likely is it that these are normal books?,threw __ into a fire,0.31,F,30
11,7947,cause_effect_prior,"""Pretty normal.""",Carolyn,object_mid,F,15,bike lights,ran out of batteries,Carolyn left  15 bike lights  on (and unplugged) all day.,short_filler,How likely is it that these are normal bike lights?,left __ on (and unplugged) all day,0.88,F,31
11,6097,cause_effect_prior,"""As usual.""",Ashley,object_low,F,15,birthday cards,had the letter Z in them,Ashley wrote  15 birthday cards.,short_filler,How likely is it that these are normal birthday cards?,wrote __,0.98,F,32
12,9607,cause_effect_prior,"""Some of the notebooks landed flat.""",Robert,object_low,M,15,notebooks,landed flat,Robert tossed  15 notebooks.,Some,How likely is it that these are normal notebooks?,tossed __,0.95,F,3
12,5839,cause_effect_prior,"""Nothing out of the ordinary.""",Gregory,object_high,M,15,banana peels,decomposed,Gregory put  15 banana peels  in a compost pile for a month.,short_filler,How likely is it that these are normal banana peels?,put __ in a compost pile for a month,0.97,M,4
12,7470,cause_effect_prior,"""None of the shirts ripped.""",Brenda,object_mid,F,15,shirts,ripped,Brenda used  15 shirts  as dog toys.,None,How likely is it that these are normal shirts?,used __ as dog toys,0.56,F,5
12,3939,cause_effect_prior,"""None of the wheelchairs rolled.""",Anthony,object_high,M,15,wheelchairs,rolled,Anthony pushed  15 wheelchairs.,None,How likely is it that these are normal wheelchairs?,pushed __,0.22,M,6
12,4353,cause_effect_prior,"""None of the bicyclists honked.""",James,object_low,M,15,bicyclists,honked,James cut off  15 bicyclists.,None,How likely is it that these are normal bicyclists?,cut off __,0.28,M,7
12,5063,cause_effect_prior,"""None of the laptops ran out of batteries.""",Shirley,object_high,F,15,laptops,ran out of batteries,Shirley left  15 laptops  on (and unplugged) all day.,None,How likely is it that these are normal laptops?,left __ on (and unplugged) all day,0.04,M,8
12,4253,cause_effect_prior,"""All of the butterflies ate the seeds.""",Gary,object_mid,M,15,butterflies,ate the seeds,Gary left seeds out for  15 butterflies.,All,How likely is it that these are normal butterflies?,left seeds out for __,0.03,F,9
12,4253,cause_effect_prior,"""Some of the kids laughed.""",Andrew,object_high,M,15,kids,laughed,Andrew told a joke to  15 kids.,Some,How likely is it that these are normal kids?,told a joke to __,0.92,M,10
12,3060,cause_effect_prior,"""Some of the poems rhymed.""",Jason,object_low,M,15,poems,rhymed,Jason wrote  15 poems.,Some,How likely is it that these are normal poems?,wrote __,0.9,F,11
12,10667,cause_effect_prior,"""That&quotechars not very good for the environment.""",Steven,object_high,M,15,new cars,beeped,Steven left the lights on in  15 new cars.,long_filler,How likely is it that these are normal new cars?,left the lights on in __,0.5,M,12
12,6267,cause_effect_prior,"""Some of the marbles sank.""",Kathleen,object_high,F,15,marbles,sank,Kathleen threw  15 marbles  into a pool.,Some,How likely is it that these are normal marbles?,threw __ into a pool,0.65,F,13
12,3240,cause_effect_prior,"""All of the chocolate bars froze.""",Donald,object_mid,M,15,chocolate bars,froze,Donald put  15 chocolate bars  in the freezer.,All,How likely is it that these are normal chocolate bars?,put __ in the freezer,0.94,M,14
12,4445,cause_effect_prior,"""Some of the balls of tin foil exploded.""",Rebecca,object_mid,F,15,balls of tin foil,exploded,Rebecca heated up  15 balls of tin foil  in a microwave.,Some,How likely is it that these are normal balls of tin foil?,heated up __ in a microwave,0.66,M,15
12,5480,cause_effect_prior,"""Some of the oreos dissolved.""",Virginia,object_mid,F,15,oreos,dissolved,Virginia put  15 oreos  in a bucket of water.,Some,How likely is it that these are normal oreos?,put __ in a bucket of water,0.7,M,16
12,3904,cause_effect_prior,"""Some of the motorcycles stopped.""",Larry,object_mid,M,15,motorcycles,stopped,Larry pressed the brakes on  15 motorcycles.,Some,How likely is it that these are normal motorcycles?,pressed the brakes on __,0.58,F,17
12,4568,cause_effect_prior,"""None of the stickers stuck.""",Jonathan,object_high,M,15,stickers,stuck,Jonathan glued  15 stickers  to a piece of paper.,None,How likely is it that these are normal stickers?,glued __ to a piece of paper,0.08,F,18
12,3218,cause_effect_prior,"""All of the ice cubes melted.""",George,object_high,M,15,ice cubes,melted,George left  15 ice cubes  in the hot sun.,All,How likely is it that these are normal ice cubes?,left __ in the hot sun,0.98,F,19
12,3758,cause_effect_prior,"""Some of the sunglasses broke.""",Jerry,object_high,M,15,sunglasses,broke,Jerry ran  15 sunglasses  over with a car.,Some,How likely is it that these are normal sunglasses?,ran __ over with a car,0.6,F,20
12,5255,cause_effect_prior,"""As usual.""",Carol,object_low,F,15,shelves,fell down,Carol punched  15 shelves.,short_filler,How likely is it that these are normal shelves?,punched __,0.97,M,21
12,3859,cause_effect_prior,"""Some of the matches burnt.""",Brian,object_high,M,15,matches,burnt,Brian threw  15 matches  into a fire.,Some,How likely is it that these are normal matches?,threw __ into a fire,0.65,F,22
12,3286,cause_effect_prior,"""All of the fireworks exploded.""",Kevin,object_mid,M,15,fireworks,exploded,Kevin lit  15 fireworks.,All,How likely is it that these are normal fireworks?,lit __,0.96,M,23
12,4500,cause_effect_prior,"""Some of the computers lit up.""",Nancy,object_mid,F,15,computers,lit up,Nancy pressed the &quotecharon&quotechar button on  15 computers.,Some,How likely is it that these are normal computers?,pressed the &quotecharon&quotechar button on __,0.6,F,24
12,6447,cause_effect_prior,"""Everyone with the selfie craze these days.""",Paul,object_high,M,15,cameras,flashed,Paul took a picture with  15 cameras.,long_filler,How likely is it that these are normal cameras?,took a picture with __,0.98,F,25
12,4130,cause_effect_prior,"""That requires a lot of concentration.""",Joseph,object_high,M,15,bubbles,popped,Joseph poked  15 bubbles  with a pin.,long_filler,How likely is it that these are normal bubbles?,poked __ with a pin,0.81,F,26
12,5761,cause_effect_prior,"""Why always the red?""",Alexander,object_high,M,15,white carpets,got stained,Alexander spilled red nail polish on  15 white carpets.,long_filler,How likely is it that these are normal white carpets?,spilled red nail polish on __,0.83,M,27
12,5310,cause_effect_prior,"""Why not just take them inside?""",Laura,object_high,F,15,mirrors,reflected the sunlight,Laura placed  15 mirrors  in the sun.,long_filler,How likely is it that these are normal mirrors?,placed __ in the sun,0.98,M,28
12,3409,cause_effect_prior,"""Typical.""",Elizabeth,object_high,F,15,pieces of gum,stuck to the wall,Elizabeth threw  15 pieces of gum  against a wall.,short_filler,How likely is it that these are normal pieces of gum?,threw __ against a wall,0.87,M,29
12,3838,cause_effect_prior,"""All of the hats blew away.""",Margaret,object_mid,F,15,hats,blew away,Margaret left  15 hats  on a table on a windy day.,All,How likely is it that these are normal hats?,left __ on a table on a windy day,0.95,F,30
12,2924,cause_effect_prior,"""Nothing surprising there.""",Lisa,object_low,F,15,birthday cards,had the letter Z in them,Lisa wrote  15 birthday cards.,short_filler,How likely is it that these are normal birthday cards?,wrote __,0.98,F,31
12,3341,cause_effect_prior,"""Pretty normal.""",Dennis,object_low,M,15,strawberries,were green,Dennis saw  15 strawberries.,short_filler,How likely is it that these are normal strawberries?,saw __,0.99,F,32
13,6480,cause_effect_prior,"""Pretty normal.""",Stephanie,object_high,F,15,bubbles,popped,Stephanie poked  15 bubbles  with a pin.,short_filler,How likely is it that these are normal bubbles?,poked __ with a pin,0.79,F,3
13,5671,cause_effect_prior,"""None of the shopping carts rolled.""",Sarah,object_mid,F,15,shopping carts,rolled,Sarah pushed  15 shopping carts.,None,How likely is it that these are normal shopping carts?,pushed __,0.02,F,4
13,5041,cause_effect_prior,"""As usual.""",Lisa,object_low,F,15,rocks,burnt,Lisa threw  15 rocks  into a fire.,short_filler,How likely is it that these are normal rocks?,threw __ into a fire,0.6,M,5
13,4046,cause_effect_prior,"""Some of the dogs ate the seeds.""",Emily,object_low,F,15,dogs,ate the seeds,Emily left seeds out for  15 dogs.,Some,How likely is it that these are normal dogs?,left seeds out for __,0.71,F,6
13,3211,cause_effect_prior,"""Some of the computers lit up.""",Carol,object_mid,F,15,computers,lit up,Carol pressed the &quotecharon&quotechar button on  15 computers.,Some,How likely is it that these are normal computers?,pressed the &quotecharon&quotechar button on __,0.38,F,7
13,4489,cause_effect_prior,"""I love throwing stuff, too.""",Charles,object_low,M,15,notebooks,landed flat,Charles tossed  15 notebooks.,long_filler,How likely is it that these are normal notebooks?,tossed __,1,F,8
13,4293,cause_effect_prior,"""All of the CDs exploded.""",Nicole,object_low,F,15,CDs,exploded,Nicole heated up  15 CDs  in a microwave.,All,How likely is it that these are normal CDs?,heated up __ in a microwave,0.96,F,9
13,5438,cause_effect_prior,"""Some of the taxi drivers honked.""",Scott,object_high,M,15,taxi drivers,honked,Scott cut off  15 taxi drivers.,Some,How likely is it that these are normal taxi drivers?,cut off __,1,F,10
13,4780,cause_effect_prior,"""Everyone with the selfie craze these days.""",Virginia,object_mid,F,15,phones,flashed,Virginia took a picture with  15 phones.,long_filler,How likely is it that these are normal phones?,took a picture with __,0.88,M,11
13,4429,cause_effect_prior,"""All of the novels had the letter Z in them.""",Jeffrey,object_high,M,15,novels,had the letter Z in them,Jeffrey wrote  15 novels.,All,How likely is it that these are normal novels?,wrote __,0.24,M,12
13,4896,cause_effect_prior,"""Nothing out of the ordinary.""",Larry,object_mid,M,15,songs,rhymed,Larry wrote  15 songs.,short_filler,How likely is it that these are normal songs?,wrote __,0.72,M,13
13,3455,cause_effect_prior,"""I should start growing those myself.""",Elizabeth,object_low,F,15,strawberries,were green,Elizabeth saw  15 strawberries.,long_filler,How likely is it that these are normal strawberries?,saw __,1,F,14
13,5289,cause_effect_prior,"""Some of the backpacks blew away.""",Catherine,object_low,F,15,backpacks,blew away,Catherine left  15 backpacks  on a table on a windy day.,Some,How likely is it that these are normal backpacks?,left __ on a table on a windy day,0.67,F,15
13,5178,cause_effect_prior,"""Some of the shoes ripped.""",Samuel,object_low,M,15,shoes,ripped,Samuel used  15 shoes  as dog toys.,Some,How likely is it that these are normal shoes?,used __ as dog toys,0.95,F,16
13,4291,cause_effect_prior,"""Some of the stickers stuck.""",Jessica,object_high,F,15,stickers,stuck,Jessica glued  15 stickers  to a piece of paper.,Some,How likely is it that these are normal stickers?,glued __ to a piece of paper,1,F,17
13,4885,cause_effect_prior,"""Some of the balloons sank.""",Ruth,object_low,F,15,balloons,sank,Ruth threw  15 balloons  into a pool.,Some,How likely is it that these are normal balloons?,threw __ into a pool,0.07,M,18
13,4709,cause_effect_prior,"""Nothing surprising there.""",Margaret,object_low,F,15,lawyers,laughed,Margaret told a joke to  15 lawyers.,short_filler,How likely is it that these are normal lawyers?,told a joke to __,0.77,M,19
13,5391,cause_effect_prior,"""Some of the pieces of gum stuck to the wall.""",George,object_high,M,15,pieces of gum,stuck to the wall,George threw  15 pieces of gum  against a wall.,Some,How likely is it that these are normal pieces of gum?,threw __ against a wall,0.64,M,20
13,5188,cause_effect_prior,"""None of the sunglasses broke.""",Mark,object_high,M,15,sunglasses,broke,Mark ran  15 sunglasses  over with a car.,None,How likely is it that these are normal sunglasses?,ran __ over with a car,0.04,F,21
13,5448,cause_effect_prior,"""Typical.""",Karen,object_high,F,15,ice cubes,melted,Karen left  15 ice cubes  in the hot sun.,short_filler,How likely is it that these are normal ice cubes?,left __ in the hot sun,1,M,22
13,5117,cause_effect_prior,"""That reminds me I need to visit my grandma.""",Kevin,object_low,M,15,bottles of hand soap,froze,Kevin put  15 bottles of hand soap  in the freezer.,long_filler,How likely is it that these are normal bottles of hand soap?,put __ in the freezer,0.66,F,23
13,3296,cause_effect_prior,"""Some of the card towers fell down.""",Frank,object_high,M,15,card towers,fell down,Frank punched  15 card towers.,Some,How likely is it that these are normal card towers?,punched __,0.72,M,24
13,6436,cause_effect_prior,"""All of the sugar cubes dissolved.""",Ashley,object_high,F,15,sugar cubes,dissolved,Ashley put  15 sugar cubes  in a bucket of water.,All,How likely is it that these are normal sugar cubes?,put __ in a bucket of water,1,F,25
13,7668,cause_effect_prior,"""All of the cars stopped.""",Jonathan,object_high,M,15,cars,stopped,Jonathan pressed the brakes on  15 cars.,All,How likely is it that these are normal cars?,pressed the brakes on __,1,F,26
13,6810,cause_effect_prior,"""None of the new cars beeped.""",Dennis,object_high,M,15,new cars,beeped,Dennis left the lights on in  15 new cars.,None,How likely is it that these are normal new cars?,left the lights on in __,0.34,M,27
13,4562,cause_effect_prior,"""All of the white shirts got stained.""",Sharon,object_mid,F,15,white shirts,got stained,Sharon spilled red nail polish on  15 white shirts.,All,How likely is it that these are normal white shirts?,spilled red nail polish on __,1,F,28
13,3248,cause_effect_prior,"""Some of the soda cans decomposed.""",James,object_low,M,15,soda cans,decomposed,James put  15 soda cans  in a compost pile for a month.,Some,How likely is it that these are normal soda cans?,put __ in a compost pile for a month,0.76,F,29
13,5510,cause_effect_prior,"""None of the mirrors reflected the sunlight.""",Paul,object_high,M,15,mirrors,reflected the sunlight,Paul placed  15 mirrors  in the sun.,None,How likely is it that these are normal mirrors?,placed __ in the sun,0,F,30
13,4384,cause_effect_prior,"""None of the phones ran out of batteries.""",Mary,object_low,F,15,phones,ran out of batteries,Mary left  15 phones  on (and unplugged) all day.,None,How likely is it that these are normal phones?,left __ on (and unplugged) all day,0,M,31
13,4731,cause_effect_prior,"""Who came up with that idea?""",Benjamin,object_low,M,15,candles,exploded,Benjamin lit  15 candles.,long_filler,How likely is it that these are normal candles?,lit __,0.87,F,32
14,8486,cause_effect_prior,"""None of the shopping carts rolled.""",Donna,object_mid,F,15,shopping carts,rolled,Donna pushed  15 shopping carts.,None,How likely is it that these are normal shopping carts?,pushed __,0.18,M,3
14,10621,cause_effect_prior,"""Typical.""",Amanda,object_low,F,15,logs,broke,Amanda ran  15 logs  over with a car.,short_filler,How likely is it that these are normal logs?,ran __ over with a car,0.87,F,4
14,6727,cause_effect_prior,"""Some of the diamonds reflected the sunlight.""",Ryan,object_mid,M,15,diamonds,reflected the sunlight,Ryan placed  15 diamonds  in the sun.,Some,How likely is it that these are normal diamonds?,placed __ in the sun,0.48,F,5
14,7397,cause_effect_prior,"""Some of the soda cans decomposed.""",Nicole,object_low,F,15,soda cans,decomposed,Nicole put  15 soda cans  in a compost pile for a month.,Some,How likely is it that these are normal soda cans?,put __ in a compost pile for a month,0.01,F,6
