workerid,strangedescription,trial_type,actual_utterance,actual_effect_question,name,object_level,gender,num_objects,object,effect,actual_cause,quantifier,rt,cause,response,other_gender,slide_number_in_experiment
0,idk,cause_effect_prior,"""Some of the houses beeped.""",Do you think Sarah is describing a normal event?,Brenda,object_low,F,15,houses,beeped,Brenda left the lights on in  15 houses.,Some,7644,left the lights on in __,no,F,3
0,,cause_effect_prior,"""Some of the books burnt.""",Do you think Ruth is describing a normal event?,Helen,object_mid,F,15,books,burnt,Helen threw  15 books  into a fire.,Some,4882,threw __ into a fire,yes,F,4
0,,cause_effect_prior,"""All of the shelves fell down.""",Do you think Jessica is describing a normal event?,Michael,object_low,M,15,shelves,fell down,Michael punched  15 shelves.,All,4707,punched __,yes,F,5
0,,cause_effect_prior,"""None of the carrots dissolved.""",Do you think Frank is describing a normal event?,William,object_low,M,15,carrots,dissolved,William put  15 carrots  in a bucket of water.,None,2757,put __ in a bucket of water,yes,M,6
0,,cause_effect_prior,"""All of the computers lit up.""",Do you think Samuel is describing a normal event?,Jason,object_mid,M,15,computers,lit up,Jason pressed the &quotecharon&quotechar button on  15 computers.,All,3268,pressed the &quotecharon&quotechar button on __,yes,M,7
0,,cause_effect_prior,"""Some of the novels had the letter Z in them.""",Do you think Jeffrey is describing a normal event?,Rachel,object_high,F,15,novels,had the letter Z in them,Rachel wrote  15 novels.,Some,3617,wrote __,yes,M,8
0,,cause_effect_prior,"""All of the pancakes landed flat.""",Do you think Sandra is describing a normal event?,Elizabeth,object_mid,F,15,pancakes,landed flat,Elizabeth tossed  15 pancakes.,All,2651,tossed __,yes,F,9
0,,cause_effect_prior,"""What a strange thing to do.""",Do you think Nicholas is describing a normal event?,Joshua,object_low,M,15,baseballs,stuck to the wall,Joshua threw  15 baseballs  against a wall.,long_filler,6464,threw __ against a wall,yes,M,10
0,,cause_effect_prior,"""So many parts need to work for us to not die.""",Do you think Ryan is describing a normal event?,Christopher,object_low,M,15,bicycles,stopped,Christopher pressed the brakes on  15 bicycles.,long_filler,4665,pressed the brakes on __,yes,M,11
0,The shirts should have stained,cause_effect_prior,"""None of the white shirts got stained.""",Do you think Rebecca is describing a normal event?,Anthony,object_mid,M,15,white shirts,got stained,Anthony spilled red nail polish on  15 white shirts.,None,13297,spilled red nail polish on __,no,F,12
0,,cause_effect_prior,"""Some of the phone screens reflected the sunlight.""",Do you think Eric is describing a normal event?,Richard,object_low,M,15,phone screens,reflected the sunlight,Richard placed  15 phone screens  in the sun.,Some,10665,placed __ in the sun,yes,M,13
0,,cause_effect_prior,"""None of the CDs exploded.""",Do you think Patrick is describing a normal event?,Andrew,object_low,M,15,CDs,exploded,Andrew heated up  15 CDs  in a microwave.,None,1617,heated up __ in a microwave,yes,M,14
0,,cause_effect_prior,"""Some of the butterflies ate the seeds.""",Do you think Emily is describing a normal event?,Jennifer,object_mid,F,15,butterflies,ate the seeds,Jennifer left seeds out for  15 butterflies.,Some,22060,left seeds out for __,yes,F,15
0,,cause_effect_prior,"""Some of the banana peels decomposed.""",Do you think Heather is describing a normal event?,Thomas,object_high,M,15,banana peels,decomposed,Thomas put  15 banana peels  in a compost pile for a month.,Some,1735,put __ in a compost pile for a month,yes,F,16
0,,cause_effect_prior,"""Nothing surprising there.""",Do you think Amy is describing a normal event?,Linda,object_low,F,15,bottles of hand soap,froze,Linda put  15 bottles of hand soap  in the freezer.,short_filler,3190,put __ in the freezer,yes,F,17
0,,cause_effect_prior,"""Pretty normal.""",Do you think Margaret is describing a normal event?,Melissa,object_mid,F,15,boxes,broke,Melissa ran  15 boxes  over with a car.,short_filler,4117,ran __ over with a car,yes,F,18
0,,cause_effect_prior,"""Some of the books ripped.""",Do you think Steven is describing a normal event?,Larry,object_high,M,15,books,ripped,Larry used  15 books  as dog toys.,Some,1962,used __ as dog toys,yes,M,19
0,,cause_effect_prior,"""Typical.""",Do you think Jerry is describing a normal event?,Paul,object_mid,M,15,bus drivers,honked,Paul cut off  15 bus drivers.,short_filler,2386,cut off __,yes,M,20
0,,cause_effect_prior,"""All of the bike lights ran out of batteries.""",Do you think Donald is describing a normal event?,Kenneth,object_mid,M,15,bike lights,ran out of batteries,Kenneth left  15 bike lights  on (and unplugged) all day.,All,1544,left __ on (and unplugged) all day,yes,M,21
0,,cause_effect_prior,"""None of the crayons melted.""",Do you think Kathleen is describing a normal event?,Ashley,object_mid,F,15,crayons,melted,Ashley left  15 crayons  in the hot sun.,None,1909,left __ in the hot sun,yes,F,22
0,,cause_effect_prior,"""As usual.""",Do you think Stephanie is describing a normal event?,Donna,object_low,F,15,strawberries,were green,Donna saw  15 strawberries.,short_filler,2100,saw __,yes,F,23
0,,cause_effect_prior,"""Some of the poems rhymed.""",Do you think Mark is describing a normal event?,Michelle,object_low,F,15,poems,rhymed,Michelle wrote  15 poems.,Some,2017,wrote __,yes,M,24
0,,cause_effect_prior,"""All of the eggs popped.""",Do you think Karen is describing a normal event?,Nancy,object_low,F,15,eggs,popped,Nancy poked  15 eggs  with a pin.,All,1952,poked __ with a pin,yes,F,25
0,,cause_effect_prior,"""Nothing out of the ordinary.""",Do you think Daniel is describing a normal event?,Sharon,object_high,F,15,wheelchairs,rolled,Sharon pushed  15 wheelchairs.,short_filler,2494,pushed __,yes,M,26
0,,cause_effect_prior,"""It looks like a zebra.""",Do you think Amanda is describing a normal event?,Emma,object_high,F,15,stickers,stuck,Emma glued  15 stickers  to a piece of paper.,long_filler,1945,glued __ to a piece of paper,yes,F,27
0,,cause_effect_prior,"""None of the fireworks exploded.""",Do you think George is describing a normal event?,John,object_mid,M,15,fireworks,exploded,John lit  15 fireworks.,None,1855,lit __,yes,M,28
0,,cause_effect_prior,"""Some of the cups sank.""",Do you think Shirley is describing a normal event?,Charles,object_mid,M,15,cups,sank,Charles threw  15 cups  into a pool.,Some,1327,threw __ into a pool,yes,F,29
0,,cause_effect_prior,"""I just wish the weather was better.""",Do you think Joseph is describing a normal event?,Catherine,object_low,F,15,backpacks,blew away,Catherine left  15 backpacks  on a table on a windy day.,long_filler,1624,left __ on a table on a windy day,yes,M,30
0,,cause_effect_prior,"""Some of the lawyers laughed.""",Do you think Jack is describing a normal event?,Ronald,object_low,M,15,lawyers,laughed,Ronald told a joke to  15 lawyers.,Some,1424,told a joke to __,yes,M,31
0,,cause_effect_prior,"""Everyone with the selfie craze these days.""",Do you think Edward is describing a normal event?,Emily,object_high,F,15,cameras,flashed,Emily took a picture with  15 cameras.,long_filler,1668,took a picture with __,yes,M,32
1,It is not normal to poke a bubble with a pin and have it not pop.,cause_effect_prior,"""None of the bubbles popped.""",Do you think Timothy is describing a normal event?,Jessica,object_high,F,15,bubbles,popped,Jessica poked  15 bubbles  with a pin.,None,22571,poked __ with a pin,no,M,3
1,,cause_effect_prior,"""All of the bananas were green.""",Do you think William is describing a normal event?,Dorothy,object_mid,F,15,bananas,were green,Dorothy saw  15 bananas.,All,5544,saw __,yes,M,4
1,,cause_effect_prior,"""Nothing out of the ordinary.""",Do you think Kathleen is describing a normal event?,Alexander,object_low,M,15,bicycles,stopped,Alexander pressed the brakes on  15 bicycles.,short_filler,11121,pressed the brakes on __,yes,F,5
1,,cause_effect_prior,"""All of the comedians laughed.""",Do you think Jack is describing a normal event?,Angela,object_mid,F,15,comedians,laughed,Angela told a joke to  15 comedians.,All,8792,told a joke to __,yes,M,6
1,,cause_effect_prior,"""All of the songs rhymed.""",Do you think Jerry is describing a normal event?,Emily,object_mid,F,15,songs,rhymed,Emily wrote  15 songs.,All,4581,wrote __,yes,M,7
1,Gas tanks will explode if lit on fire.,cause_effect_prior,"""None of the gas tanks exploded.""",Do you think Emily is describing a normal event?,Kenneth,object_high,M,15,gas tanks,exploded,Kenneth lit  15 gas tanks.,None,13779,lit __,no,F,8
1,,cause_effect_prior,"""Some of the balls of tin foil exploded.""",Do you think Ryan is describing a normal event?,Susan,object_mid,F,15,balls of tin foil,exploded,Susan heated up  15 balls of tin foil  in a microwave.,Some,9306,heated up __ in a microwave,yes,M,9
1,,cause_effect_prior,"""Some of the old cars beeped.""",Do you think Ronald is describing a normal event?,Sarah,object_mid,F,15,old cars,beeped,Sarah left the lights on in  15 old cars.,Some,6160,left the lights on in __,yes,M,10
1,,cause_effect_prior,"""Some of the banana peels decomposed.""",Do you think Sandra is describing a normal event?,Mark,object_high,M,15,banana peels,decomposed,Mark put  15 banana peels  in a compost pile for a month.,Some,4784,put __ in a compost pile for a month,yes,F,11
1,,cause_effect_prior,"""Some of the hats blew away.""",Do you think Julie is describing a normal event?,Paul,object_mid,M,15,hats,blew away,Paul left  15 hats  on a table on a windy day.,Some,5046,left __ on a table on a windy day,yes,F,12
1,,cause_effect_prior,"""All of the cd-players lit up.""",Do you think Margaret is describing a normal event?,Raymond,object_low,M,15,cd-players,lit up,Raymond pressed the &quotecharon&quotechar button on  15 cd-players.,All,4296,pressed the &quotecharon&quotechar button on __,yes,F,13
1,,cause_effect_prior,"""Doesn&quotechart the dog have its own toys?""",Do you think Justin is describing a normal event?,Jacob,object_mid,M,15,shirts,ripped,Jacob used  15 shirts  as dog toys.,long_filler,8953,used __ as dog toys,yes,M,14
1,Pencils are usually made of wood which doesn&quotechart melt.,cause_effect_prior,"""Some of the pencils melted.""",Do you think Joseph is describing a normal event?,Emma,object_low,F,15,pencils,melted,Emma left  15 pencils  in the hot sun.,Some,14888,left __ in the hot sun,no,M,15
1,,cause_effect_prior,"""Some of the cakes stuck to the wall.""",Do you think David is describing a normal event?,Cynthia,object_mid,F,15,cakes,stuck to the wall,Cynthia threw  15 cakes  against a wall.,Some,4480,threw __ against a wall,yes,M,16
1,It is very improbable for a tossed coin to not land on a flat side.,cause_effect_prior,"""None of the coins landed flat.""",Do you think Samantha is describing a normal event?,Gary,object_high,M,15,coins,landed flat,Gary tossed  15 coins.,None,19461,tossed __,no,F,17
1,,cause_effect_prior,"""Some of the bottles of hand soap froze.""",Do you think Shirley is describing a normal event?,Edward,object_low,M,15,bottles of hand soap,froze,Edward put  15 bottles of hand soap  in the freezer.,Some,7919,put __ in the freezer,yes,F,18
1,Rocks typically do not burn.,cause_effect_prior,"""All of the rocks burnt.""",Do you think Tyler is describing a normal event?,Mary,object_low,F,15,rocks,burnt,Mary threw  15 rocks  into a fire.,All,10490,threw __ into a fire,no,M,19
1,,cause_effect_prior,"""Why always the red?""",Do you think Catherine is describing a normal event?,Gregory,object_high,M,15,white carpets,got stained,Gregory spilled red nail polish on  15 white carpets.,long_filler,5430,spilled red nail polish on __,yes,F,20
1,,cause_effect_prior,"""That looks kind of dangerous.""",Do you think Robert is describing a normal event?,Diane,object_low,F,15,bicyclists,honked,Diane cut off  15 bicyclists.,long_filler,4351,cut off __,yes,M,21
1,,cause_effect_prior,"""Nothing surprising there.""",Do you think Christina is describing a normal event?,Linda,object_mid,F,15,oreos,dissolved,Linda put  15 oreos  in a bucket of water.,short_filler,4176,put __ in a bucket of water,yes,F,22
1,,cause_effect_prior,"""Some of the birthday cards had the letter Z in them.""",Do you think Nicole is describing a normal event?,James,object_low,M,15,birthday cards,had the letter Z in them,James wrote  15 birthday cards.,Some,6488,wrote __,yes,F,23
1,,cause_effect_prior,"""As usual.""",Do you think Matthew is describing a normal event?,Scott,object_low,M,15,webcams,flashed,Scott took a picture with  15 webcams.,short_filler,4917,took a picture with __,yes,M,24
1,,cause_effect_prior,"""Typical.""",Do you think Rachel is describing a normal event?,Jennifer,object_low,F,15,phones,ran out of batteries,Jennifer left  15 phones  on (and unplugged) all day.,short_filler,3955,left __ on (and unplugged) all day,yes,F,25
1,Phone screens are typically reflective.,cause_effect_prior,"""None of the phone screens reflected the sunlight.""",Do you think Jason is describing a normal event?,Andrew,object_low,M,15,phone screens,reflected the sunlight,Andrew placed  15 phone screens  in the sun.,None,16806,placed __ in the sun,no,M,26
1,,cause_effect_prior,"""Pretty normal.""",Do you think Janet is describing a normal event?,Carolyn,object_low,F,15,beads,stuck,Carolyn glued  15 beads  to a piece of paper.,short_filler,5029,glued __ to a piece of paper,yes,F,27
1,,cause_effect_prior,"""Pushing stuff is so much fun.""",Do you think Anthony is describing a normal event?,Stephanie,object_low,F,15,toy cars,rolled,Stephanie pushed  15 toy cars.,long_filler,3439,pushed __,yes,M,28
1,,cause_effect_prior,"""Some of the marbles sank.""",Do you think Heather is describing a normal event?,Patrick,object_high,M,15,marbles,sank,Patrick threw  15 marbles  into a pool.,Some,3024,threw __ into a pool,yes,F,29
1,Sunglasses will break if a car runs over them.,cause_effect_prior,"""None of the sunglasses broke.""",Do you think Brian is describing a normal event?,Eric,object_high,M,15,sunglasses,broke,Eric ran  15 sunglasses  over with a car.,None,12471,ran __ over with a car,no,M,30
1,,cause_effect_prior,"""I wish someone would leave seeds out for me.""",Do you think Benjamin is describing a normal event?,Steven,object_high,M,15,birds,ate the seeds,Steven left seeds out for  15 birds.,long_filler,3478,left seeds out for __,yes,M,31
1,,cause_effect_prior,"""Some of the shelves fell down.""",Do you think Nicholas is describing a normal event?,Laura,object_low,F,15,shelves,fell down,Laura punched  15 shelves.,Some,2695,punched __,yes,M,32
2,,cause_effect_prior,"""Some of the cups sank.""",Do you think Jacob is describing a normal event?,Gregory,object_mid,M,15,cups,sank,Gregory threw  15 cups  into a pool.,Some,9310,threw __ into a pool,yes,M,3
2,they should all land flat,cause_effect_prior,"""Some of the notebooks landed flat.""",Do you think Diane is describing a normal event?,Angela,object_low,F,15,notebooks,landed flat,Angela tossed  15 notebooks.,Some,17589,tossed __,no,F,4
2,,cause_effect_prior,"""Some of the phones flashed.""",Do you think Donna is describing a normal event?,Ruth,object_mid,F,15,phones,flashed,Ruth took a picture with  15 phones.,Some,3123,took a picture with __,yes,F,5
2,no shit they burnt,cause_effect_prior,"""Some of the matches burnt.""",Do you think Ashley is describing a normal event?,Susan,object_high,F,15,matches,burnt,Susan threw  15 matches  into a fire.,Some,8898,threw __ into a fire,no,F,6
2,,cause_effect_prior,"""I should start growing those myself.""",Do you think Thomas is describing a normal event?,Frank,object_low,M,15,strawberries,were green,Frank saw  15 strawberries.,long_filler,3633,saw __,yes,M,7
2,,cause_effect_prior,"""All of the new cars beeped.""",Do you think Shirley is describing a normal event?,Kimberly,object_high,F,15,new cars,beeped,Kimberly left the lights on in  15 new cars.,All,12909,left the lights on in __,yes,F,8
2,,cause_effect_prior,"""None of the boxes broke.""",Do you think Michael is describing a normal event?,Kevin,object_mid,M,15,boxes,broke,Kevin ran  15 boxes  over with a car.,None,3166,ran __ over with a car,yes,M,9
2,,cause_effect_prior,"""All of the flashlights lit up.""",Do you think Jonathan is describing a normal event?,John,object_high,M,15,flashlights,lit up,John pressed the &quotecharon&quotechar button on  15 flashlights.,All,3649,pressed the &quotecharon&quotechar button on __,yes,M,10
2,thati is quite the odd observation,cause_effect_prior,"""None of the birthday cards had the letter Z in them.""",Do you think Catherine is describing a normal event?,Scott,object_low,M,15,birthday cards,had the letter Z in them,Scott wrote  15 birthday cards.,None,9977,wrote __,no,F,11
2,"""the"" red? that sounds off. putting ""the&quotechar in front of an adjective",cause_effect_prior,"""Why always the red?""",Do you think Gary is describing a normal event?,Sarah,object_mid,F,15,white shirts,got stained,Sarah spilled red nail polish on  15 white shirts.,long_filler,17513,spilled red nail polish on __,no,M,12
2,What is typical? I don&quotechart know. Not sure what that is referring too.,cause_effect_prior,"""Typical.""",Do you think Julie is describing a normal event?,Michelle,object_high,F,15,sugar cubes,dissolved,Michelle put  15 sugar cubes  in a bucket of water.,short_filler,17915,put __ in a bucket of water,no,F,13
2,"they dont honk, generally speaking",cause_effect_prior,"""None of the bicyclists honked.""",Do you think Justin is describing a normal event?,Virginia,object_low,F,15,bicyclists,honked,Virginia cut off  15 bicyclists.,None,8841,cut off __,no,M,14
2,,cause_effect_prior,"""None of the sequins stuck.""",Do you think Emma is describing a normal event?,Kathleen,object_mid,F,15,sequins,stuck,Kathleen glued  15 sequins  to a piece of paper.,None,6831,glued __ to a piece of paper,yes,F,15
2,,cause_effect_prior,"""All of the eggs exploded.""",Do you think Rebecca is describing a normal event?,Christina,object_high,F,15,eggs,exploded,Christina heated up  15 eggs  in a microwave.,All,2164,heated up __ in a microwave,yes,F,16
2,they are already stationary,cause_effect_prior,"""None of the bicycles stopped.""",Do you think George is describing a normal event?,Anthony,object_low,M,15,bicycles,stopped,Anthony pressed the brakes on  15 bicycles.,None,9566,pressed the brakes on __,no,M,17
2,"not necessarily reducing trash, just using it better",cause_effect_prior,"""What a great way to reduce trash.""",Do you think Patrick is describing a normal event?,Helen,object_high,F,15,banana peels,decomposed,Helen put  15 banana peels  in a compost pile for a month.,long_filler,11091,put __ in a compost pile for a month,no,M,18
2,,cause_effect_prior,"""Nothing out of the ordinary.""",Do you think Carol is describing a normal event?,Amy,object_mid,F,15,comedians,laughed,Amy told a joke to  15 comedians.,short_filler,5606,told a joke to __,yes,F,19
2,,cause_effect_prior,"""Doesn&quotechart the dog have its own toys?""",Do you think Donald is describing a normal event?,Joseph,object_high,M,15,books,ripped,Joseph used  15 books  as dog toys.,long_filler,3923,used __ as dog toys,yes,M,20
2,not normal at all for someone to put that stuff in the freezer,cause_effect_prior,"""Pretty normal.""",Do you think Daniel is describing a normal event?,Betty,object_low,F,15,bottles of hand soap,froze,Betty put  15 bottles of hand soap  in the freezer.,short_filler,12293,put __ in the freezer,no,M,21
2,,cause_effect_prior,"""All of the limericks rhymed.""",Do you think Laura is describing a normal event?,Janet,object_high,F,15,limericks,rhymed,Janet wrote  15 limericks.,All,2675,wrote __,yes,F,22
2,,cause_effect_prior,"""Some of the balloons popped.""",Do you think Paul is describing a normal event?,Samantha,object_mid,F,15,balloons,popped,Samantha poked  15 balloons  with a pin.,Some,2721,poked __ with a pin,yes,M,23
2,,cause_effect_prior,"""All of the wheelchairs rolled.""",Do you think Dorothy is describing a normal event?,Ryan,object_high,M,15,wheelchairs,rolled,Ryan pushed  15 wheelchairs.,All,4536,pushed __,yes,F,24
2,,cause_effect_prior,"""Some of the birds ate the seeds.""",Do you think Timothy is describing a normal event?,Steven,object_high,M,15,birds,ate the seeds,Steven left seeds out for  15 birds.,Some,4362,left seeds out for __,yes,M,25
2,,cause_effect_prior,"""As usual.""",Do you think Melissa is describing a normal event?,Heather,object_high,F,15,napkins,blew away,Heather left  15 napkins  on a table on a windy day.,short_filler,4713,left __ on a table on a windy day,yes,F,26
2,,cause_effect_prior,"""Some of the card towers fell down.""",Do you think Joshua is describing a normal event?,Brenda,object_high,F,15,card towers,fell down,Brenda punched  15 card towers.,Some,3926,punched __,yes,M,27
2,,cause_effect_prior,"""Some of the cakes stuck to the wall.""",Do you think Sandra is describing a normal event?,Lisa,object_mid,F,15,cakes,stuck to the wall,Lisa threw  15 cakes  against a wall.,Some,6520,threw __ against a wall,yes,F,28
2,has nothing to do with the crayons.,cause_effect_prior,"""It&quotechars a beautiful day.""",Do you think Nancy is describing a normal event?,Cynthia,object_mid,F,15,crayons,melted,Cynthia left  15 crayons  in the hot sun.,long_filler,9608,left __ in the hot sun,no,F,29
2,,cause_effect_prior,"""Some of the bike lights ran out of batteries.""",Do you think Jason is describing a normal event?,Tyler,object_mid,M,15,bike lights,ran out of batteries,Tyler left  15 bike lights  on (and unplugged) all day.,Some,6006,left __ on (and unplugged) all day,yes,M,30
2,,cause_effect_prior,"""Some of the mirrors reflected the sunlight.""",Do you think Samuel is describing a normal event?,Anna,object_high,F,15,mirrors,reflected the sunlight,Anna placed  15 mirrors  in the sun.,Some,2403,placed __ in the sun,yes,M,31
2,confused. doesnt make sense given the context,cause_effect_prior,"""Nothing surprising there.""",Do you think Jeffrey is describing a normal event?,David,object_low,M,15,candles,exploded,David lit  15 candles.,short_filler,13245,lit __,no,M,32
3,,cause_effect_prior,"""Some of the laptops ran out of batteries.""",Do you think Catherine is describing a normal event?,Emily,object_high,F,15,laptops,ran out of batteries,Emily left  15 laptops  on (and unplugged) all day.,Some,10389,left __ on (and unplugged) all day,yes,F,3
3,,cause_effect_prior,"""As usual.""",Do you think Laura is describing a normal event?,Ronald,object_mid,M,15,bus drivers,honked,Ronald cut off  15 bus drivers.,short_filler,7323,cut off __,yes,F,4
3,,cause_effect_prior,"""All of the bottles of hand soap froze.""",Do you think Joyce is describing a normal event?,Jason,object_low,M,15,bottles of hand soap,froze,Jason put  15 bottles of hand soap  in the freezer.,All,4692,put __ in the freezer,yes,F,5
3,,cause_effect_prior,"""Pretty normal.""",Do you think Jonathan is describing a normal event?,Kenneth,object_high,M,15,coins,landed flat,Kenneth tossed  15 coins.,short_filler,3496,tossed __,yes,M,6
3,Because the polish should have stained the shirts.,cause_effect_prior,"""None of the white shirts got stained.""",Do you think Alexander is describing a normal event?,Eric,object_mid,M,15,white shirts,got stained,Eric spilled red nail polish on  15 white shirts.,None,25011,spilled red nail polish on __,no,M,7
3,,cause_effect_prior,"""All of the boxes broke.""",Do you think Carol is describing a normal event?,Justin,object_mid,M,15,boxes,broke,Justin ran  15 boxes  over with a car.,All,4291,ran __ over with a car,yes,F,8
3,,cause_effect_prior,"""All of the limericks rhymed.""",Do you think Jerry is describing a normal event?,Virginia,object_high,F,15,limericks,rhymed,Virginia wrote  15 limericks.,All,3522,wrote __,yes,M,9
3,Carots do not dissolve in water.,cause_effect_prior,"""All of the carrots dissolved.""",Do you think Elizabeth is describing a normal event?,Diane,object_low,F,15,carrots,dissolved,Diane put  15 carrots  in a bucket of water.,All,13052,put __ in a bucket of water,no,F,10
3,,cause_effect_prior,"""Typical.""",Do you think Emily is describing a normal event?,Cynthia,object_mid,F,15,shirts,ripped,Cynthia used  15 shirts  as dog toys.,short_filler,3948,used __ as dog toys,yes,F,11
3,,cause_effect_prior,"""Nothing surprising there.""",Do you think Ryan is describing a normal event?,Paul,object_mid,M,15,shopping carts,rolled,Paul pushed  15 shopping carts.,short_filler,2851,pushed __,yes,M,12
3,,cause_effect_prior,"""It&quotechars just fun to throw stuff in the water.""",Do you think Jeffrey is describing a normal event?,Donald,object_high,M,15,marbles,sank,Donald threw  15 marbles  into a pool.,long_filler,5022,threw __ into a pool,yes,M,13
3,,cause_effect_prior,"""Some of the butterflies ate the seeds.""",Do you think Emma is describing a normal event?,Dorothy,object_mid,F,15,butterflies,ate the seeds,Dorothy left seeds out for  15 butterflies.,Some,3733,left seeds out for __,yes,F,14
3,Houses do not beep.,cause_effect_prior,"""Some of the houses beeped.""",Do you think Jack is describing a normal event?,Rachel,object_low,F,15,houses,beeped,Rachel left the lights on in  15 houses.,Some,48643,left the lights on in __,no,M,15
3,,cause_effect_prior,"""I should start growing those myself.""",Do you think James is describing a normal event?,Daniel,object_low,M,15,strawberries,were green,Daniel saw  15 strawberries.,long_filler,4888,saw __,yes,M,16
3,,cause_effect_prior,"""None of the candles exploded.""",Do you think Donna is describing a normal event?,Sandra,object_low,F,15,candles,exploded,Sandra lit  15 candles.,None,2922,lit __,yes,F,17
3,All should have melted.,cause_effect_prior,"""Some of the ice cubes melted.""",Do you think Scott is describing a normal event?,Shirley,object_high,F,15,ice cubes,melted,Shirley left  15 ice cubes  in the hot sun.,Some,14093,left __ in the hot sun,no,M,18
3,,cause_effect_prior,"""Why not just take them inside?""",Do you think Kevin is describing a normal event?,Rebecca,object_low,F,15,phone screens,reflected the sunlight,Rebecca placed  15 phone screens  in the sun.,long_filler,4901,placed __ in the sun,yes,M,19
3,Cans do not decompose.,cause_effect_prior,"""Some of the soda cans decomposed.""",Do you think Benjamin is describing a normal event?,Sharon,object_low,F,15,soda cans,decomposed,Sharon put  15 soda cans  in a compost pile for a month.,Some,10068,put __ in a compost pile for a month,no,M,20
3,Books do burn.,cause_effect_prior,"""None of the books burnt.""",Do you think Joseph is describing a normal event?,Brandon,object_mid,M,15,books,burnt,Brandon threw  15 books  into a fire.,None,14125,threw __ into a fire,no,M,21
3,,cause_effect_prior,"""Some of the pieces of gum stuck to the wall.""",Do you think Susan is describing a normal event?,Linda,object_high,F,15,pieces of gum,stuck to the wall,Linda threw  15 pieces of gum  against a wall.,Some,4073,threw __ against a wall,yes,F,22
3,,cause_effect_prior,"""All of the balls of tin foil exploded.""",Do you think Ruth is describing a normal event?,Matthew,object_mid,M,15,balls of tin foil,exploded,Matthew heated up  15 balls of tin foil  in a microwave.,All,2901,heated up __ in a microwave,yes,F,23
3,Napkins should get blown by wind.,cause_effect_prior,"""None of the napkins blew away.""",Do you think Gregory is describing a normal event?,Samantha,object_high,F,15,napkins,blew away,Samantha left  15 napkins  on a table on a windy day.,None,21465,left __ on a table on a windy day,no,M,24
3,It is easy to pop a balloon with a pin.,cause_effect_prior,"""That requires a lot of concentration.""",Do you think Christina is describing a normal event?,Richard,object_mid,M,15,balloons,popped,Richard poked  15 balloons  with a pin.,long_filler,15760,poked __ with a pin,no,F,25
3,,cause_effect_prior,"""Some of the bicycles stopped.""",Do you think Robert is describing a normal event?,Edward,object_low,M,15,bicycles,stopped,Edward pressed the brakes on  15 bicycles.,Some,3534,pressed the brakes on __,yes,M,26
3,,cause_effect_prior,"""None of the cd-players lit up.""",Do you think Brian is describing a normal event?,George,object_low,M,15,cd-players,lit up,George pressed the &quotecharon&quotechar button on  15 cd-players.,None,4115,pressed the &quotecharon&quotechar button on __,yes,M,27
3,,cause_effect_prior,"""Some people just love destruction.""",Do you think William is describing a normal event?,Anna,object_low,F,15,shelves,fell down,Anna punched  15 shelves.,long_filler,4958,punched __,yes,M,28
3,,cause_effect_prior,"""Some of the beads stuck.""",Do you think Margaret is describing a normal event?,Jacob,object_low,M,15,beads,stuck,Jacob glued  15 beads  to a piece of paper.,Some,4979,glued __ to a piece of paper,yes,F,29
3,,cause_effect_prior,"""Some of the lawyers laughed.""",Do you think Raymond is describing a normal event?,Thomas,object_low,M,15,lawyers,laughed,Thomas told a joke to  15 lawyers.,Some,3294,told a joke to __,yes,M,30
3,A novel is a long piece of literature.  you would think there would be every letter included at least once.,cause_effect_prior,"""Some of the novels had the letter Z in them.""",Do you think Kimberly is describing a normal event?,Timothy,object_high,M,15,novels,had the letter Z in them,Timothy wrote  15 novels.,Some,30212,wrote __,no,F,31
3,,cause_effect_prior,"""Nothing out of the ordinary.""",Do you think Charles is describing a normal event?,Heather,object_low,F,15,webcams,flashed,Heather took a picture with  15 webcams.,short_filler,4059,took a picture with __,yes,M,32
4,People don&quotechart throw cakes against the wall.,cause_effect_prior,"""As usual.""",Do you think Angela is describing a normal event?,Justin,object_mid,M,15,cakes,stuck to the wall,Justin threw  15 cakes  against a wall.,short_filler,16313,threw __ against a wall,no,F,3
4,Some of the fireworks should have exploded,cause_effect_prior,"""None of the fireworks exploded.""",Do you think Jack is describing a normal event?,Shirley,object_mid,F,15,fireworks,exploded,Shirley lit  15 fireworks.,None,11011,lit __,no,M,4
4,the berries should have froze,cause_effect_prior,"""None of the berries froze.""",Do you think Jennifer is describing a normal event?,Samantha,object_high,F,15,berries,froze,Samantha put  15 berries  in the freezer.,None,10711,put __ in the freezer,no,F,5
4,,cause_effect_prior,"""None of the butterflies ate the seeds.""",Do you think Jeffrey is describing a normal event?,Emily,object_mid,F,15,butterflies,ate the seeds,Emily left seeds out for  15 butterflies.,None,3898,left seeds out for __,yes,M,6
4,,cause_effect_prior,"""All of the clovers were green.""",Do you think Emily is describing a normal event?,Benjamin,object_high,M,15,clovers,were green,Benjamin saw  15 clovers.,All,2927,saw __,yes,F,7
4,,cause_effect_prior,"""It looks like a zebra.""",Do you think Heather is describing a normal event?,Frank,object_mid,M,15,sequins,stuck,Frank glued  15 sequins  to a piece of paper.,long_filler,3916,glued __ to a piece of paper,yes,F,8
4,,cause_effect_prior,"""All of the balloons popped.""",Do you think Dorothy is describing a normal event?,Larry,object_mid,M,15,balloons,popped,Larry poked  15 balloons  with a pin.,All,2677,poked __ with a pin,yes,F,9
4,,cause_effect_prior,"""Some of the songs rhymed.""",Do you think Deborah is describing a normal event?,Emma,object_mid,F,15,songs,rhymed,Emma wrote  15 songs.,Some,3151,wrote __,yes,F,10
4,,cause_effect_prior,"""I love watching fires.""",Do you think Joseph is describing a normal event?,Eric,object_mid,M,15,books,burnt,Eric threw  15 books  into a fire.,long_filler,4403,threw __ into a fire,yes,M,11
4,,cause_effect_prior,"""Typical.""",Do you think Rebecca is describing a normal event?,John,object_mid,M,15,pinecones,decomposed,John put  15 pinecones  in a compost pile for a month.,short_filler,3567,put __ in a compost pile for a month,yes,F,12
4,,cause_effect_prior,"""Some of the diamonds reflected the sunlight.""",Do you think Melissa is describing a normal event?,Carolyn,object_mid,F,15,diamonds,reflected the sunlight,Carolyn placed  15 diamonds  in the sun.,Some,3552,placed __ in the sun,yes,F,13
4,,cause_effect_prior,"""Some of the cameras flashed.""",Do you think Michelle is describing a normal event?,William,object_high,M,15,cameras,flashed,William took a picture with  15 cameras.,Some,2016,took a picture with __,yes,F,14
4,,cause_effect_prior,"""Nothing out of the ordinary.""",Do you think Nancy is describing a normal event?,Sharon,object_high,F,15,new cars,beeped,Sharon left the lights on in  15 new cars.,short_filler,3778,left the lights on in __,yes,F,15
4,,cause_effect_prior,"""Some of the cups sank.""",Do you think Michael is describing a normal event?,Brian,object_mid,M,15,cups,sank,Brian threw  15 cups  into a pool.,Some,3393,threw __ into a pool,yes,M,16
4,carrots don&quotechart dissolve in water,cause_effect_prior,"""All of the carrots dissolved.""",Do you think Stephanie is describing a normal event?,Rachel,object_low,F,15,carrots,dissolved,Rachel put  15 carrots  in a bucket of water.,All,10675,put __ in a bucket of water,no,F,17
4,,cause_effect_prior,"""All of the boxes broke.""",Do you think Daniel is describing a normal event?,Joyce,object_mid,F,15,boxes,broke,Joyce ran  15 boxes  over with a car.,All,3268,ran __ over with a car,yes,M,18
4,,cause_effect_prior,"""That looks kind of dangerous.""",Do you think Richard is describing a normal event?,David,object_mid,M,15,bus drivers,honked,David cut off  15 bus drivers.,long_filler,3163,cut off __,yes,M,19
4,some of the coins should have landed flat,cause_effect_prior,"""None of the coins landed flat.""",Do you think Jerry is describing a normal event?,Catherine,object_high,F,15,coins,landed flat,Catherine tossed  15 coins.,None,11447,tossed __,no,M,20
4,,cause_effect_prior,"""Some of the balls of tin foil exploded.""",Do you think Matthew is describing a normal event?,Dennis,object_mid,M,15,balls of tin foil,exploded,Dennis heated up  15 balls of tin foil  in a microwave.,Some,2792,heated up __ in a microwave,yes,M,21
4,,cause_effect_prior,"""Some of the kids laughed.""",Do you think Raymond is describing a normal event?,George,object_high,M,15,kids,laughed,George told a joke to  15 kids.,Some,2166,told a joke to __,yes,M,22
4,,cause_effect_prior,"""Some of the books ripped.""",Do you think Kathleen is describing a normal event?,Gary,object_high,M,15,books,ripped,Gary used  15 books  as dog toys.,Some,2794,used __ as dog toys,yes,F,23
4,,cause_effect_prior,"""Nothing surprising there.""",Do you think Anthony is describing a normal event?,James,object_low,M,15,birthday cards,had the letter Z in them,James wrote  15 birthday cards.,short_filler,2914,wrote __,yes,M,24
4,,cause_effect_prior,"""Some of the white carpets got stained.""",Do you think Kevin is describing a normal event?,Helen,object_high,F,15,white carpets,got stained,Helen spilled red nail polish on  15 white carpets.,Some,3823,spilled red nail polish on __,yes,M,25
4,,cause_effect_prior,"""Some of the card towers fell down.""",Do you think Laura is describing a normal event?,Janet,object_high,F,15,card towers,fell down,Janet punched  15 card towers.,Some,2557,punched __,yes,F,26
4,,cause_effect_prior,"""Pretty normal.""",Do you think Julie is describing a normal event?,Charles,object_high,M,15,flashlights,lit up,Charles pressed the &quotecharon&quotechar button on  15 flashlights.,short_filler,2629,pressed the &quotecharon&quotechar button on __,yes,F,27
4,,cause_effect_prior,"""Pushing stuff is so much fun.""",Do you think Alexander is describing a normal event?,Ryan,object_mid,M,15,shopping carts,rolled,Ryan pushed  15 shopping carts.,long_filler,2619,pushed __,yes,M,28
4,the motorcycles should have stopped,cause_effect_prior,"""None of the motorcycles stopped.""",Do you think Virginia is describing a normal event?,Brandon,object_mid,M,15,motorcycles,stopped,Brandon pressed the brakes on  15 motorcycles.,None,9946,pressed the brakes on __,no,F,29
4,,cause_effect_prior,"""Some of the pencils melted.""",Do you think Ashley is describing a normal event?,Edward,object_low,M,15,pencils,melted,Edward left  15 pencils  in the hot sun.,Some,2799,left __ in the hot sun,yes,F,30
4,,cause_effect_prior,"""I just wish the weather was better.""",Do you think Ronald is describing a normal event?,Mary,object_mid,F,15,hats,blew away,Mary left  15 hats  on a table on a windy day.,long_filler,2745,left __ on a table on a windy day,yes,M,31
4,,cause_effect_prior,"""All of the laptops ran out of batteries.""",Do you think Betty is describing a normal event?,Gregory,object_high,M,15,laptops,ran out of batteries,Gregory left  15 laptops  on (and unplugged) all day.,All,3830,left __ on (and unplugged) all day,yes,F,32
5,,cause_effect_prior,"""Some of the webcams flashed.""",Do you think Nicole is describing a normal event?,Brian,object_low,M,15,webcams,flashed,Brian took a picture with  15 webcams.,Some,10843,took a picture with __,yes,F,3
5,,cause_effect_prior,"""Why does Lucy always leave her stuff in the driveway?""",Do you think Kenneth is describing a normal event?,Steven,object_mid,M,15,boxes,broke,Steven ran  15 boxes  over with a car.,long_filler,3289,ran __ over with a car,yes,M,4
5,why some novels?,cause_effect_prior,"""Some of the novels had the letter Z in them.""",Do you think Jeffrey is describing a normal event?,James,object_high,M,15,novels,had the letter Z in them,James wrote  15 novels.,Some,8824,wrote __,no,M,5
5,bicyclist dont honk,cause_effect_prior,"""All of the bicyclists honked.""",Do you think Ronald is describing a normal event?,Margaret,object_low,F,15,bicyclists,honked,Margaret cut off  15 bicyclists.,All,9713,cut off __,no,M,6
5,,cause_effect_prior,"""Some of the old cars beeped.""",Do you think Deborah is describing a normal event?,Carolyn,object_mid,F,15,old cars,beeped,Carolyn left the lights on in  15 old cars.,Some,4068,left the lights on in __,yes,F,7
5,,cause_effect_prior,"""All of the matches burnt.""",Do you think Larry is describing a normal event?,Jack,object_high,M,15,matches,burnt,Jack threw  15 matches  into a fire.,All,3242,threw __ into a fire,yes,M,8
5,why wernt some yellow,cause_effect_prior,"""All of the bananas were green.""",Do you think George is describing a normal event?,Jerry,object_mid,M,15,bananas,were green,Jerry saw  15 bananas.,All,8059,saw __,no,M,9
5,can they decompose?,cause_effect_prior,"""Some of the pinecones decomposed.""",Do you think Helen is describing a normal event?,Robert,object_mid,M,15,pinecones,decomposed,Robert put  15 pinecones  in a compost pile for a month.,Some,8150,put __ in a compost pile for a month,no,F,10
5,,cause_effect_prior,"""Some of the napkins blew away.""",Do you think Mark is describing a normal event?,Ashley,object_high,F,15,napkins,blew away,Ashley left  15 napkins  on a table on a windy day.,Some,2761,left __ on a table on a windy day,yes,M,11
5,,cause_effect_prior,"""None of the pencils melted.""",Do you think Patrick is describing a normal event?,Michael,object_low,M,15,pencils,melted,Michael left  15 pencils  in the hot sun.,None,3518,left __ in the hot sun,yes,M,12
5,balloons dont sink they go up,cause_effect_prior,"""Some of the balloons sank.""",Do you think Susan is describing a normal event?,Samuel,object_low,M,15,balloons,sank,Samuel threw  15 balloons  into a pool.,Some,13657,threw __ into a pool,no,F,13
5,,cause_effect_prior,"""All of the laptops ran out of batteries.""",Do you think Sandra is describing a normal event?,Ruth,object_high,F,15,laptops,ran out of batteries,Ruth left  15 laptops  on (and unplugged) all day.,All,15109,left __ on (and unplugged) all day,yes,F,14
5,,cause_effect_prior,"""That reminds me I need to visit my grandma.""",Do you think Joyce is describing a normal event?,Emily,object_low,F,15,bottles of hand soap,froze,Emily put  15 bottles of hand soap  in the freezer.,long_filler,2716,put __ in the freezer,yes,F,15
5,,cause_effect_prior,"""None of the gas tanks exploded.""",Do you think Tyler is describing a normal event?,Michelle,object_high,F,15,gas tanks,exploded,Michelle lit  15 gas tanks.,None,4065,lit __,yes,M,16
5,eggs dont pop,cause_effect_prior,"""None of the eggs popped.""",Do you think Karen is describing a normal event?,Catherine,object_low,F,15,eggs,popped,Catherine poked  15 eggs  with a pin.,None,6369,poked __ with a pin,no,F,17
5,,cause_effect_prior,"""Some people just love destruction.""",Do you think Gregory is describing a normal event?,Diane,object_high,F,15,card towers,fell down,Diane punched  15 card towers.,long_filler,3580,punched __,yes,M,18
5,,cause_effect_prior,"""I love throwing stuff, too.""",Do you think Daniel is describing a normal event?,Sarah,object_low,F,15,notebooks,landed flat,Sarah tossed  15 notebooks.,long_filler,2600,tossed __,yes,M,19
5,why would they eat seeds,cause_effect_prior,"""None of the dogs ate the seeds.""",Do you think Jennifer is describing a normal event?,Joshua,object_low,M,15,dogs,ate the seeds,Joshua left seeds out for  15 dogs.,None,7617,left seeds out for __,no,F,20
5,,cause_effect_prior,"""Some of the balls of tin foil exploded.""",Do you think Dorothy is describing a normal event?,William,object_mid,M,15,balls of tin foil,exploded,William heated up  15 balls of tin foil  in a microwave.,Some,3354,heated up __ in a microwave,yes,F,21
5,,cause_effect_prior,"""Nothing out of the ordinary.""",Do you think Donna is describing a normal event?,Betty,object_mid,F,15,sequins,stuck,Betty glued  15 sequins  to a piece of paper.,short_filler,2667,glued __ to a piece of paper,yes,F,22
5,,cause_effect_prior,"""Typical.""",Do you think Jessica is describing a normal event?,Paul,object_high,M,15,limericks,rhymed,Paul wrote  15 limericks.,short_filler,1942,wrote __,yes,F,23
5,whya re cakes on the wall?,cause_effect_prior,"""All of the cakes stuck to the wall.""",Do you think Raymond is describing a normal event?,Angela,object_mid,F,15,cakes,stuck to the wall,Angela threw  15 cakes  against a wall.,All,7239,threw __ against a wall,no,M,24
5,,cause_effect_prior,"""None of the diamonds reflected the sunlight.""",Do you think Virginia is describing a normal event?,Kevin,object_mid,M,15,diamonds,reflected the sunlight,Kevin placed  15 diamonds  in the sun.,None,2480,placed __ in the sun,yes,F,25
5,,cause_effect_prior,"""As usual.""",Do you think Linda is describing a normal event?,Melissa,object_low,F,15,carrots,dissolved,Melissa put  15 carrots  in a bucket of water.,short_filler,1730,put __ in a bucket of water,yes,F,26
5,,cause_effect_prior,"""Why always the red?""",Do you think Janet is describing a normal event?,Charles,object_low,M,15,white tablecloths,got stained,Charles spilled red nail polish on  15 white tablecloths.,long_filler,2825,spilled red nail polish on __,yes,F,27
5,,cause_effect_prior,"""Some of the kids laughed.""",Do you think Stephanie is describing a normal event?,Brenda,object_high,F,15,kids,laughed,Brenda told a joke to  15 kids.,Some,1783,told a joke to __,yes,F,28
5,,cause_effect_prior,"""Some of the shirts ripped.""",Do you think Rachel is describing a normal event?,Amy,object_mid,F,15,shirts,ripped,Amy used  15 shirts  as dog toys.,Some,3631,used __ as dog toys,yes,F,29
5,,cause_effect_prior,"""Pretty normal.""",Do you think Emily is describing a normal event?,Elizabeth,object_mid,F,15,computers,lit up,Elizabeth pressed the &quotecharon&quotechar button on  15 computers.,short_filler,2919,pressed the &quotecharon&quotechar button on __,yes,F,30
5,why rool a shopping cart,cause_effect_prior,"""Some of the shopping carts rolled.""",Do you think Andrew is describing a normal event?,Benjamin,object_mid,M,15,shopping carts,rolled,Benjamin pushed  15 shopping carts.,Some,10191,pushed __,no,M,31
5,,cause_effect_prior,"""Nothing surprising there.""",Do you think Gary is describing a normal event?,Anthony,object_high,M,15,cars,stopped,Anthony pressed the brakes on  15 cars.,short_filler,2277,pressed the brakes on __,yes,M,32
6,,cause_effect_prior,"""None of the diamonds reflected the sunlight.""",Do you think Eric is describing a normal event?,Alexander,object_mid,M,15,diamonds,reflected the sunlight,Alexander placed  15 diamonds  in the sun.,None,2892,placed __ in the sun,yes,M,3
6,,cause_effect_prior,"""Why does Lucy always leave her stuff in the driveway?""",Do you think Dorothy is describing a normal event?,Cynthia,object_high,F,15,sunglasses,broke,Cynthia ran  15 sunglasses  over with a car.,long_filler,2327,ran __ over with a car,yes,F,4
6,,cause_effect_prior,"""None of the fireworks exploded.""",Do you think Betty is describing a normal event?,Ronald,object_mid,M,15,fireworks,exploded,Ronald lit  15 fireworks.,None,2471,lit __,yes,F,5
6,,cause_effect_prior,"""Some of the oreos dissolved.""",Do you think Samantha is describing a normal event?,Kevin,object_mid,M,15,oreos,dissolved,Kevin put  15 oreos  in a bucket of water.,Some,2328,put __ in a bucket of water,yes,F,6
6,,cause_effect_prior,"""Some of the computers lit up.""",Do you think Gregory is describing a normal event?,Laura,object_mid,F,15,computers,lit up,Laura pressed the &quotecharon&quotechar button on  15 computers.,Some,1719,pressed the &quotecharon&quotechar button on __,yes,M,7
6,,cause_effect_prior,"""Some of the white carpets got stained.""",Do you think Nancy is describing a normal event?,Jennifer,object_high,F,15,white carpets,got stained,Jennifer spilled red nail polish on  15 white carpets.,Some,1255,spilled red nail polish on __,yes,F,8
6,,cause_effect_prior,"""Pretty normal.""",Do you think Justin is describing a normal event?,Kathleen,object_mid,F,15,bike lights,ran out of batteries,Kathleen left  15 bike lights  on (and unplugged) all day.,short_filler,1423,left __ on (and unplugged) all day,yes,M,9
6,,cause_effect_prior,"""Some of the ice cubes melted.""",Do you think Elizabeth is describing a normal event?,Scott,object_high,M,15,ice cubes,melted,Scott left  15 ice cubes  in the hot sun.,Some,1455,left __ in the hot sun,yes,F,10
6,,cause_effect_prior,"""Nothing surprising there.""",Do you think Patrick is describing a normal event?,Carol,object_low,F,15,houses,beeped,Carol left the lights on in  15 houses.,short_filler,1095,left the lights on in __,yes,M,11
6,,cause_effect_prior,"""Some of the pinecones decomposed.""",Do you think Jonathan is describing a normal event?,Matthew,object_mid,M,15,pinecones,decomposed,Matthew put  15 pinecones  in a compost pile for a month.,Some,1391,put __ in a compost pile for a month,yes,M,12
6,,cause_effect_prior,"""Some of the napkins blew away.""",Do you think Andrew is describing a normal event?,Helen,object_high,F,15,napkins,blew away,Helen left  15 napkins  on a table on a windy day.,Some,999,left __ on a table on a windy day,yes,M,13
6,,cause_effect_prior,"""Some of the stickers stuck.""",Do you think Paul is describing a normal event?,Joseph,object_high,M,15,stickers,stuck,Joseph glued  15 stickers  to a piece of paper.,Some,1551,glued __ to a piece of paper,yes,M,14
6,,cause_effect_prior,"""Typical.""",Do you think Joshua is describing a normal event?,Steven,object_mid,M,15,balls of tin foil,exploded,Steven heated up  15 balls of tin foil  in a microwave.,short_filler,1719,heated up __ in a microwave,yes,M,15
6,,cause_effect_prior,"""All of the block towers fell down.""",Do you think Christopher is describing a normal event?,Heather,object_mid,F,15,block towers,fell down,Heather punched  15 block towers.,All,1424,punched __,yes,M,16
6,,cause_effect_prior,"""All of the rocks burnt.""",Do you think Michael is describing a normal event?,Benjamin,object_low,M,15,rocks,burnt,Benjamin threw  15 rocks  into a fire.,All,6760,threw __ into a fire,yes,M,17
6,,cause_effect_prior,"""None of the bicycles stopped.""",Do you think Donald is describing a normal event?,Mark,object_low,M,15,bicycles,stopped,Mark pressed the brakes on  15 bicycles.,None,1968,pressed the brakes on __,yes,M,18
6,,cause_effect_prior,"""None of the butterflies ate the seeds.""",Do you think Dennis is describing a normal event?,Edward,object_mid,M,15,butterflies,ate the seeds,Edward left seeds out for  15 butterflies.,None,1519,left seeds out for __,yes,M,19
6,,cause_effect_prior,"""Pushing stuff is so much fun.""",Do you think Emma is describing a normal event?,Nicholas,object_high,M,15,wheelchairs,rolled,Nicholas pushed  15 wheelchairs.,long_filler,1983,pushed __,yes,F,20
6,,cause_effect_prior,"""Some of the birthday cards had the letter Z in them.""",Do you think William is describing a normal event?,Mary,object_low,F,15,birthday cards,had the letter Z in them,Mary wrote  15 birthday cards.,Some,2175,wrote __,yes,M,21
6,,cause_effect_prior,"""Some of the shirts ripped.""",Do you think Gary is describing a normal event?,Brandon,object_mid,M,15,shirts,ripped,Brandon used  15 shirts  as dog toys.,Some,1631,used __ as dog toys,yes,M,22
6,,cause_effect_prior,"""Everyone with the selfie craze these days.""",Do you think Lisa is describing a normal event?,John,object_mid,M,15,phones,flashed,John took a picture with  15 phones.,long_filler,2344,took a picture with __,yes,F,23
6,"Balloons tend to float in the air, not sink - unless filled with a heavier than water substance.",cause_effect_prior,"""None of the balloons sank.""",Do you think Jessica is describing a normal event?,Linda,object_low,F,15,balloons,sank,Linda threw  15 balloons  into a pool.,None,21569,threw __ into a pool,no,F,24
6,,cause_effect_prior,"""That requires a lot of concentration.""",Do you think Charles is describing a normal event?,Tyler,object_mid,M,15,balloons,popped,Tyler poked  15 balloons  with a pin.,long_filler,1943,poked __ with a pin,yes,M,25
6,,cause_effect_prior,"""All of the limericks rhymed.""",Do you think Richard is describing a normal event?,Donna,object_high,F,15,limericks,rhymed,Donna wrote  15 limericks.,All,2494,wrote __,yes,M,26
6,,cause_effect_prior,"""All of the bicyclists honked.""",Do you think Brenda is describing a normal event?,Joyce,object_low,F,15,bicyclists,honked,Joyce cut off  15 bicyclists.,All,1768,cut off __,yes,F,27
6,,cause_effect_prior,"""Nothing out of the ordinary.""",Do you think Daniel is describing a normal event?,Amanda,object_low,F,15,bottles of hand soap,froze,Amanda put  15 bottles of hand soap  in the freezer.,short_filler,1311,put __ in the freezer,yes,M,28
6,,cause_effect_prior,"""Some of the kids laughed.""",Do you think Ruth is describing a normal event?,Timothy,object_high,M,15,kids,laughed,Timothy told a joke to  15 kids.,Some,1935,told a joke to __,yes,F,29
6,,cause_effect_prior,"""As usual.""",Do you think Susan is describing a normal event?,Deborah,object_low,F,15,baseballs,stuck to the wall,Deborah threw  15 baseballs  against a wall.,short_filler,2432,threw __ against a wall,yes,F,30
6,,cause_effect_prior,"""All of the pancakes landed flat.""",Do you think Frank is describing a normal event?,Robert,object_mid,M,15,pancakes,landed flat,Robert tossed  15 pancakes.,All,3279,tossed __,yes,M,31
6,,cause_effect_prior,"""I should start growing those myself.""",Do you think Jeffrey is describing a normal event?,George,object_mid,M,15,bananas,were green,George saw  15 bananas.,long_filler,2087,saw __,yes,M,32
7,,cause_effect_prior,"""Some of the taxi drivers honked.""",Do you think Thomas is describing a normal event?,Steven,object_high,M,15,taxi drivers,honked,Steven cut off  15 taxi drivers.,Some,9239,cut off __,yes,M,3
7,I don&quotechart hear of anyone adding that much sugar to a bucket of water,cause_effect_prior,"""Pretty normal.""",Do you think James is describing a normal event?,Anthony,object_high,M,15,sugar cubes,dissolved,Anthony put  15 sugar cubes  in a bucket of water.,short_filler,28081,put __ in a bucket of water,no,M,4
7,,cause_effect_prior,"""Some of the songs rhymed.""",Do you think Helen is describing a normal event?,Mary,object_mid,F,15,songs,rhymed,Mary wrote  15 songs.,Some,3638,wrote __,yes,F,5
7,,cause_effect_prior,"""Some of the matches burnt.""",Do you think Paul is describing a normal event?,Joseph,object_high,M,15,matches,burnt,Joseph threw  15 matches  into a fire.,Some,5573,threw __ into a fire,yes,M,6
7,,cause_effect_prior,"""None of the sequins stuck.""",Do you think Deborah is describing a normal event?,Kenneth,object_mid,M,15,sequins,stuck,Kenneth glued  15 sequins  to a piece of paper.,None,6636,glued __ to a piece of paper,yes,F,7
7,Who puts 15 backpacks on a table?,cause_effect_prior,"""Some of the backpacks blew away.""",Do you think Angela is describing a normal event?,Daniel,object_low,M,15,backpacks,blew away,Daniel left  15 backpacks  on a table on a windy day.,Some,13686,left __ on a table on a windy day,no,F,8
7,,cause_effect_prior,"""Nothing out of the ordinary.""",Do you think Rebecca is describing a normal event?,Sarah,object_high,F,15,ice cubes,melted,Sarah left  15 ice cubes  in the hot sun.,short_filler,4554,left __ in the hot sun,yes,F,9
7,,cause_effect_prior,"""All of the novels had the letter Z in them.""",Do you think Susan is describing a normal event?,Robert,object_high,M,15,novels,had the letter Z in them,Robert wrote  15 novels.,All,4415,wrote __,yes,F,10
7,,cause_effect_prior,"""Some of the cameras flashed.""",Do you think Brian is describing a normal event?,Raymond,object_high,M,15,cameras,flashed,Raymond took a picture with  15 cameras.,Some,7276,took a picture with __,yes,M,11
7,This makes no sense to me,cause_effect_prior,"""That would be a pretty useful gadget.""",Do you think Jennifer is describing a normal event?,Emily,object_high,F,15,laptops,ran out of batteries,Emily left  15 laptops  on (and unplugged) all day.,long_filler,11061,left __ on (and unplugged) all day,no,F,12
7,,cause_effect_prior,"""Some of the cars stopped.""",Do you think Donna is describing a normal event?,Jack,object_high,M,15,cars,stopped,Jack pressed the brakes on  15 cars.,Some,4770,pressed the brakes on __,yes,F,13
7,,cause_effect_prior,"""All of the cakes stuck to the wall.""",Do you think Michelle is describing a normal event?,Nicholas,object_mid,M,15,cakes,stuck to the wall,Nicholas threw  15 cakes  against a wall.,All,3955,threw __ against a wall,yes,F,14
7,Strawberries are typically red,cause_effect_prior,"""All of the strawberries were green.""",Do you think David is describing a normal event?,Elizabeth,object_low,F,15,strawberries,were green,Elizabeth saw  15 strawberries.,All,13165,saw __,no,M,15
7,Julie punched shelves,cause_effect_prior,"""As usual.""",Do you think Emily is describing a normal event?,Julie,object_low,F,15,shelves,fell down,Julie punched  15 shelves.,short_filler,14783,punched __,no,F,16
7,eggs would normally explode,cause_effect_prior,"""None of the eggs exploded.""",Do you think Donald is describing a normal event?,Richard,object_high,M,15,eggs,exploded,Richard heated up  15 eggs  in a microwave.,None,10042,heated up __ in a microwave,no,M,17
7,wheelchairs do roll,cause_effect_prior,"""None of the wheelchairs rolled.""",Do you think Matthew is describing a normal event?,Anna,object_high,F,15,wheelchairs,rolled,Anna pushed  15 wheelchairs.,None,11359,pushed __,no,M,18
7,,cause_effect_prior,"""Some of the shoes ripped.""",Do you think Joyce is describing a normal event?,Sharon,object_low,F,15,shoes,ripped,Sharon used  15 shoes  as dog toys.,Some,5439,used __ as dog toys,yes,F,19
7,,cause_effect_prior,"""Typical.""",Do you think Amy is describing a normal event?,Ashley,object_high,F,15,bubbles,popped,Ashley poked  15 bubbles  with a pin.,short_filler,5723,poked __ with a pin,yes,F,20
7,,cause_effect_prior,"""Some of the new cars beeped.""",Do you think Jason is describing a normal event?,George,object_high,M,15,new cars,beeped,George left the lights on in  15 new cars.,Some,11592,left the lights on in __,yes,M,21
7,,cause_effect_prior,"""I wish someone would leave seeds out for me.""",Do you think Frank is describing a normal event?,Jonathan,object_high,M,15,birds,ate the seeds,Jonathan left seeds out for  15 birds.,long_filler,5891,left seeds out for __,yes,M,22
7,,cause_effect_prior,"""None of the gas tanks exploded.""",Do you think Ruth is describing a normal event?,Virginia,object_high,F,15,gas tanks,exploded,Virginia lit  15 gas tanks.,None,3435,lit __,yes,F,23
7,,cause_effect_prior,"""Nothing surprising there.""",Do you think Lisa is describing a normal event?,Gregory,object_low,M,15,logs,broke,Gregory ran  15 logs  over with a car.,short_filler,3655,ran __ over with a car,yes,F,24
7,,cause_effect_prior,"""What a great way to reduce trash.""",Do you think Andrew is describing a normal event?,Brandon,object_high,M,15,banana peels,decomposed,Brandon put  15 banana peels  in a compost pile for a month.,long_filler,5671,put __ in a compost pile for a month,yes,M,25
7,balloons would not usually sink,cause_effect_prior,"""Some of the balloons sank.""",Do you think Janet is describing a normal event?,Karen,object_low,F,15,balloons,sank,Karen threw  15 balloons  into a pool.,Some,11680,threw __ into a pool,no,F,26
7,,cause_effect_prior,"""Why always the red?""",Do you think Kevin is describing a normal event?,Carolyn,object_mid,F,15,white shirts,got stained,Carolyn spilled red nail polish on  15 white shirts.,long_filler,4921,spilled red nail polish on __,yes,M,27
7,flash lights usually light up,cause_effect_prior,"""None of the flashlights lit up.""",Do you think Cynthia is describing a normal event?,Christopher,object_high,M,15,flashlights,lit up,Christopher pressed the &quotecharon&quotechar button on  15 flashlights.,None,11145,pressed the &quotecharon&quotechar button on __,no,F,28
7,,cause_effect_prior,"""Some of the coins landed flat.""",Do you think Diane is describing a normal event?,Catherine,object_high,F,15,coins,landed flat,Catherine tossed  15 coins.,Some,4529,tossed __,yes,F,29
7,,cause_effect_prior,"""All of the chocolate bars froze.""",Do you think Dennis is describing a normal event?,Christina,object_mid,F,15,chocolate bars,froze,Christina put  15 chocolate bars  in the freezer.,All,4395,put __ in the freezer,yes,M,30
7,,cause_effect_prior,"""All of the kids laughed.""",Do you think Heather is describing a normal event?,Rachel,object_high,F,15,kids,laughed,Rachel told a joke to  15 kids.,All,3868,told a joke to __,yes,F,31
7,,cause_effect_prior,"""Why not just take them inside?""",Do you think Jeffrey is describing a normal event?,Edward,object_mid,M,15,diamonds,reflected the sunlight,Edward placed  15 diamonds  in the sun.,long_filler,4155,placed __ in the sun,yes,M,32
8,Throwing cakes against a wall is odd behavior.,cause_effect_prior,"""None of the cakes stuck to the wall.""",Do you think Carolyn is describing a normal event?,Brandon,object_mid,M,15,cakes,stuck to the wall,Brandon threw  15 cakes  against a wall.,None,34504,threw __ against a wall,no,F,3
8,,cause_effect_prior,"""Nothing surprising there.""",Do you think Jennifer is describing a normal event?,Dorothy,object_low,F,15,phone screens,reflected the sunlight,Dorothy placed  15 phone screens  in the sun.,short_filler,63368,placed __ in the sun,yes,F,4
8,,cause_effect_prior,"""As usual.""",Do you think Brenda is describing a normal event?,Paul,object_low,M,15,houses,beeped,Paul left the lights on in  15 houses.,short_filler,27265,left the lights on in __,yes,F,5
8,,cause_effect_prior,"""All of the laptops ran out of batteries.""",Do you think Anthony is describing a normal event?,George,object_high,M,15,laptops,ran out of batteries,George left  15 laptops  on (and unplugged) all day.,All,11200,left __ on (and unplugged) all day,yes,M,6
8,They should have been stained.,cause_effect_prior,"""None of the white tablecloths got stained.""",Do you think Donna is describing a normal event?,Ronald,object_low,M,15,white tablecloths,got stained,Ronald spilled red nail polish on  15 white tablecloths.,None,17090,spilled red nail polish on __,no,F,7
8,Eggs do not pop.,cause_effect_prior,"""Some of the eggs popped.""",Do you think Nicholas is describing a normal event?,Nancy,object_low,F,15,eggs,popped,Nancy poked  15 eggs  with a pin.,Some,13688,poked __ with a pin,no,M,8
8,,cause_effect_prior,"""Some of the poems rhymed.""",Do you think Deborah is describing a normal event?,Richard,object_low,M,15,poems,rhymed,Richard wrote  15 poems.,Some,6454,wrote __,yes,F,9
8,,cause_effect_prior,"""I wish we could just say &quotecharon&quotechar.""",Do you think Heather is describing a normal event?,Helen,object_high,F,15,flashlights,lit up,Helen pressed the &quotecharon&quotechar button on  15 flashlights.,long_filler,9358,pressed the &quotecharon&quotechar button on __,yes,F,10
8,,cause_effect_prior,"""None of the rocks burnt.""",Do you think Lisa is describing a normal event?,Benjamin,object_low,M,15,rocks,burnt,Benjamin threw  15 rocks  into a fire.,None,6131,threw __ into a fire,yes,F,11
8,,cause_effect_prior,"""All of the notebooks landed flat.""",Do you think Amy is describing a normal event?,Larry,object_low,M,15,notebooks,landed flat,Larry tossed  15 notebooks.,All,6145,tossed __,yes,F,12
8,,cause_effect_prior,"""None of the oreos dissolved.""",Do you think Sarah is describing a normal event?,William,object_mid,M,15,oreos,dissolved,William put  15 oreos  in a bucket of water.,None,14306,put __ in a bucket of water,yes,F,13
8,,cause_effect_prior,"""Some of the banana peels decomposed.""",Do you think Christina is describing a normal event?,Ruth,object_high,F,15,banana peels,decomposed,Ruth put  15 banana peels  in a compost pile for a month.,Some,6762,put __ in a compost pile for a month,yes,F,14
8,You don&quotechart really leave seeds out for dogs.,cause_effect_prior,"""Some of the dogs ate the seeds.""",Do you think Ashley is describing a normal event?,Patrick,object_low,M,15,dogs,ate the seeds,Patrick left seeds out for  15 dogs.,Some,19525,left seeds out for __,no,F,15
8,,cause_effect_prior,"""Typical.""",Do you think Thomas is describing a normal event?,John,object_high,M,15,cameras,flashed,John took a picture with  15 cameras.,short_filler,10575,took a picture with __,yes,M,16
8,The block towers would have fell down if she had hit them.,cause_effect_prior,"""None of the block towers fell down.""",Do you think Nicole is describing a normal event?,Emily,object_mid,F,15,block towers,fell down,Emily punched  15 block towers.,None,28891,punched __,no,F,17
8,,cause_effect_prior,"""Some of the berries froze.""",Do you think Gary is describing a normal event?,Jacob,object_high,M,15,berries,froze,Jacob put  15 berries  in the freezer.,Some,5600,put __ in the freezer,yes,M,18
8,,cause_effect_prior,"""Some of the beads stuck.""",Do you think Elizabeth is describing a normal event?,Emma,object_low,F,15,beads,stuck,Emma glued  15 beads  to a piece of paper.,Some,4409,glued __ to a piece of paper,yes,F,19
8,,cause_effect_prior,"""Why does Lucy always leave her stuff in the driveway?""",Do you think Sandra is describing a normal event?,Kevin,object_mid,M,15,boxes,broke,Kevin ran  15 boxes  over with a car.,long_filler,9752,ran __ over with a car,yes,F,20
8,Books aren&quotechart typically used as a dog toy.,cause_effect_prior,"""Doesn&quotechart the dog have its own toys?""",Do you think Andrew is describing a normal event?,Joyce,object_high,F,15,books,ripped,Joyce used  15 books  as dog toys.,long_filler,19997,used __ as dog toys,no,M,21
8,Putting tin foil in the microwave would have caused a fire.,cause_effect_prior,"""Pretty normal.""",Do you think Robert is describing a normal event?,Jessica,object_mid,F,15,balls of tin foil,exploded,Jessica heated up  15 balls of tin foil  in a microwave.,short_filler,20570,heated up __ in a microwave,no,M,22
8,,cause_effect_prior,"""Nothing out of the ordinary.""",Do you think Virginia is describing a normal event?,Cynthia,object_high,F,15,kids,laughed,Cynthia told a joke to  15 kids.,short_filler,6374,told a joke to __,yes,F,23
8,Cars honk bicyclists do not.,cause_effect_prior,"""All of the bicyclists honked.""",Do you think Daniel is describing a normal event?,Charles,object_low,M,15,bicyclists,honked,Charles cut off  15 bicyclists.,All,19307,cut off __,no,M,24
8,All of the marbles would have sank.,cause_effect_prior,"""Some of the marbles sank.""",Do you think Ryan is describing a normal event?,Margaret,object_high,F,15,marbles,sank,Margaret threw  15 marbles  into a pool.,Some,13508,threw __ into a pool,no,M,25
8,,cause_effect_prior,"""Some of the shopping carts rolled.""",Do you think Diane is describing a normal event?,Samuel,object_mid,M,15,shopping carts,rolled,Samuel pushed  15 shopping carts.,Some,5952,pushed __,yes,F,26
8,,cause_effect_prior,"""So many parts need to work for us to not die.""",Do you think Janet is describing a normal event?,Raymond,object_mid,M,15,motorcycles,stopped,Raymond pressed the brakes on  15 motorcycles.,long_filler,19372,pressed the brakes on __,yes,F,27
8,,cause_effect_prior,"""All of the hats blew away.""",Do you think Jason is describing a normal event?,Dennis,object_mid,M,15,hats,blew away,Dennis left  15 hats  on a table on a windy day.,All,4623,left __ on a table on a windy day,yes,M,28
8,,cause_effect_prior,"""All of the ice cubes melted.""",Do you think Jeffrey is describing a normal event?,Jonathan,object_high,M,15,ice cubes,melted,Jonathan left  15 ice cubes  in the hot sun.,All,3658,left __ in the hot sun,yes,M,29
8,Candles do not explode when lit.,cause_effect_prior,"""Some of the candles exploded.""",Do you think Kimberly is describing a normal event?,Christopher,object_low,M,15,candles,exploded,Christopher lit  15 candles.,Some,12331,lit __,no,F,30
8,,cause_effect_prior,"""I just don&quotechart have the patience to write one of those.""",Do you think Karen is describing a normal event?,Rachel,object_high,F,15,novels,had the letter Z in them,Rachel wrote  15 novels.,long_filler,11006,wrote __,yes,F,31
8,,cause_effect_prior,"""Some of the bananas were green.""",Do you think Mark is describing a normal event?,Donald,object_mid,M,15,bananas,were green,Donald saw  15 bananas.,Some,5547,saw __,yes,M,32
9,The nail polish stained white tablecloths.,cause_effect_prior,"""None of the white tablecloths got stained.""",Do you think Carol is describing a normal event?,Catherine,object_low,F,15,white tablecloths,got stained,Catherine spilled red nail polish on  15 white tablecloths.,None,44412,spilled red nail polish on __,no,F,3
9,,cause_effect_prior,"""Some of the bananas were green.""",Do you think Cynthia is describing a normal event?,William,object_mid,M,15,bananas,were green,William saw  15 bananas.,Some,10983,saw __,yes,F,4
9,,cause_effect_prior,"""Nothing out of the ordinary.""",Do you think Michael is describing a normal event?,Tyler,object_mid,M,15,crayons,melted,Tyler left  15 crayons  in the hot sun.,short_filler,12151,left __ in the hot sun,yes,M,5
9,,cause_effect_prior,"""Some of the bus drivers honked.""",Do you think John is describing a normal event?,Amy,object_mid,F,15,bus drivers,honked,Amy cut off  15 bus drivers.,Some,10583,cut off __,yes,M,6
9,,cause_effect_prior,"""Typical.""",Do you think Joseph is describing a normal event?,Angela,object_low,F,15,toy cars,rolled,Angela pushed  15 toy cars.,short_filler,6633,pushed __,yes,M,7
9,"Without knowing more about Paul, writing 15 novels is extraordinary.",cause_effect_prior,"""Nothing surprising there.""",Do you think Eric is describing a normal event?,Paul,object_high,M,15,novels,had the letter Z in them,Paul wrote  15 novels.,short_filler,33758,wrote __,no,M,8
9,,cause_effect_prior,"""Some of the phones flashed.""",Do you think Thomas is describing a normal event?,Mary,object_mid,F,15,phones,flashed,Mary took a picture with  15 phones.,Some,10720,took a picture with __,yes,M,9
9,I&quotechard think all of the marbles would sink.,cause_effect_prior,"""Some of the marbles sank.""",Do you think Ryan is describing a normal event?,Ashley,object_high,F,15,marbles,sank,Ashley threw  15 marbles  into a pool.,Some,26711,threw __ into a pool,no,M,10
9,,cause_effect_prior,"""Pretty normal.""",Do you think Christopher is describing a normal event?,Jonathan,object_mid,M,15,pinecones,decomposed,Jonathan put  15 pinecones  in a compost pile for a month.,short_filler,7544,put __ in a compost pile for a month,yes,M,11
9,,cause_effect_prior,"""Some of the oreos dissolved.""",Do you think Laura is describing a normal event?,Raymond,object_mid,M,15,oreos,dissolved,Raymond put  15 oreos  in a bucket of water.,Some,9705,put __ in a bucket of water,yes,F,12
9,,cause_effect_prior,"""Some of the coins landed flat.""",Do you think Jack is describing a normal event?,Donald,object_high,M,15,coins,landed flat,Donald tossed  15 coins.,Some,9839,tossed __,yes,M,13
9,Kind of a cutting remark.,cause_effect_prior,"""That&quotechars one way of spending your free time.""",Do you think Jennifer is describing a normal event?,Larry,object_high,M,15,eggs,exploded,Larry heated up  15 eggs  in a microwave.,long_filler,36672,heated up __ in a microwave,no,F,14
9,Seems strange there would be 15 bikes with failing brakes.,cause_effect_prior,"""None of the bicycles stopped.""",Do you think Matthew is describing a normal event?,Virginia,object_low,F,15,bicycles,stopped,Virginia pressed the brakes on  15 bicycles.,None,28103,pressed the brakes on __,no,M,15
9,,cause_effect_prior,"""All of the cd-players lit up.""",Do you think Jeffrey is describing a normal event?,Alexander,object_low,M,15,cd-players,lit up,Alexander pressed the &quotecharon&quotechar button on  15 cd-players.,All,5888,pressed the &quotecharon&quotechar button on __,yes,M,16
9,,cause_effect_prior,"""All of the berries froze.""",Do you think Emma is describing a normal event?,Sarah,object_high,F,15,berries,froze,Sarah put  15 berries  in the freezer.,All,4999,put __ in the freezer,yes,F,17
9,Use of the word strange implies it was unusual.,cause_effect_prior,"""What a strange thing to do.""",Do you think Betty is describing a normal event?,Rachel,object_high,F,15,pieces of gum,stuck to the wall,Rachel threw  15 pieces of gum  against a wall.,long_filler,37574,threw __ against a wall,no,F,18
9,,cause_effect_prior,"""None of the block towers fell down.""",Do you think Brandon is describing a normal event?,Jason,object_mid,M,15,block towers,fell down,Jason punched  15 block towers.,None,8423,punched __,yes,M,19
9,,cause_effect_prior,"""All of the eggs popped.""",Do you think Daniel is describing a normal event?,Anna,object_low,F,15,eggs,popped,Anna poked  15 eggs  with a pin.,All,5599,poked __ with a pin,yes,M,20
9,,cause_effect_prior,"""Some of the gas tanks exploded.""",Do you think Karen is describing a normal event?,Margaret,object_high,F,15,gas tanks,exploded,Margaret lit  15 gas tanks.,Some,9104,lit __,yes,F,21
9,,cause_effect_prior,"""Some of the hats blew away.""",Do you think Janet is describing a normal event?,Helen,object_mid,F,15,hats,blew away,Helen left  15 hats  on a table on a windy day.,Some,5560,left __ on a table on a windy day,yes,F,22
9,,cause_effect_prior,"""All of the phone screens reflected the sunlight.""",Do you think Kenneth is describing a normal event?,Timothy,object_low,M,15,phone screens,reflected the sunlight,Timothy placed  15 phone screens  in the sun.,All,6743,placed __ in the sun,yes,M,23
9,,cause_effect_prior,"""Why does Lucy always leave her stuff in the driveway?""",Do you think Linda is describing a normal event?,Scott,object_low,M,15,logs,broke,Scott ran  15 logs  over with a car.,long_filler,8495,ran __ over with a car,yes,F,24
9,She&quotechars not describing anything.,cause_effect_prior,"""I wish someone would leave seeds out for me.""",Do you think Michelle is describing a normal event?,Heather,object_mid,F,15,butterflies,ate the seeds,Heather left seeds out for  15 butterflies.,long_filler,32409,left seeds out for __,no,F,25
9,,cause_effect_prior,"""All of the lawyers laughed.""",Do you think Nicholas is describing a normal event?,Elizabeth,object_low,F,15,lawyers,laughed,Elizabeth told a joke to  15 lawyers.,All,5399,told a joke to __,yes,M,26
9,,cause_effect_prior,"""As usual.""",Do you think Dennis is describing a normal event?,George,object_high,M,15,limericks,rhymed,George wrote  15 limericks.,short_filler,6617,wrote __,yes,M,27
9,,cause_effect_prior,"""None of the phones ran out of batteries.""",Do you think Patrick is describing a normal event?,Melissa,object_low,F,15,phones,ran out of batteries,Melissa left  15 phones  on (and unplugged) all day.,None,10823,left __ on (and unplugged) all day,yes,M,28
9,,cause_effect_prior,"""Some of the books ripped.""",Do you think Jacob is describing a normal event?,Frank,object_high,M,15,books,ripped,Frank used  15 books  as dog toys.,Some,5831,used __ as dog toys,yes,M,29
9,Statement doesn&quotechart describe anything.,cause_effect_prior,"""That&quotechars not very good for the environment.""",Do you think Amanda is describing a normal event?,Sharon,object_low,F,15,houses,beeped,Sharon left the lights on in  15 houses.,long_filler,20542,left the lights on in __,no,F,30
9,I would expect at least some to stick.,cause_effect_prior,"""None of the sequins stuck.""",Do you think Julie is describing a normal event?,Joshua,object_mid,M,15,sequins,stuck,Joshua glued  15 sequins  to a piece of paper.,None,40760,glued __ to a piece of paper,no,F,31
9,,cause_effect_prior,"""Some of the matches burnt.""",Do you think Charles is describing a normal event?,Rebecca,object_high,F,15,matches,burnt,Rebecca threw  15 matches  into a fire.,Some,5160,threw __ into a fire,yes,M,32
10,Webcams don&quotechart usually have lights on them.,cause_effect_prior,"""Some of the webcams flashed.""",Do you think David is describing a normal event?,Carol,object_low,F,15,webcams,flashed,Carol took a picture with  15 webcams.,Some,16094,took a picture with __,no,M,3
10,,cause_effect_prior,"""Who came up with that idea?""",Do you think Kevin is describing a normal event?,Jerry,object_mid,M,15,fireworks,exploded,Jerry lit  15 fireworks.,long_filler,16096,lit __,yes,M,4
10,,cause_effect_prior,"""That&quotechars one way of spending your free time.""",Do you think Alexander is describing a normal event?,Patrick,object_high,M,15,eggs,exploded,Patrick heated up  15 eggs  in a microwave.,long_filler,10197,heated up __ in a microwave,yes,M,5
10,Most names don&quotechart have a z,cause_effect_prior,"""All of the birthday cards had the letter Z in them.""",Do you think Robert is describing a normal event?,Christopher,object_low,M,15,birthday cards,had the letter Z in them,Christopher wrote  15 birthday cards.,All,8963,wrote __,no,M,6
10,Matches should burn.,cause_effect_prior,"""None of the matches burnt.""",Do you think Ashley is describing a normal event?,James,object_high,M,15,matches,burnt,James threw  15 matches  into a fire.,None,12467,threw __ into a fire,no,F,7
10,,cause_effect_prior,"""I just wish the weather was better.""",Do you think Kathleen is describing a normal event?,Heather,object_high,F,15,napkins,blew away,Heather left  15 napkins  on a table on a windy day.,long_filler,4942,left __ on a table on a windy day,yes,F,8
10,,cause_effect_prior,"""I love throwing stuff, too.""",Do you think Jessica is describing a normal event?,William,object_low,M,15,notebooks,landed flat,William tossed  15 notebooks.,long_filler,3249,tossed __,yes,F,9
10,They should light up if on,cause_effect_prior,"""None of the computers lit up.""",Do you think Linda is describing a normal event?,Paul,object_mid,M,15,computers,lit up,Paul pressed the &quotecharon&quotechar button on  15 computers.,None,17518,pressed the &quotecharon&quotechar button on __,no,F,10
10,They should roll if she pushed them.,cause_effect_prior,"""None of the toy cars rolled.""",Do you think Emma is describing a normal event?,Donna,object_low,F,15,toy cars,rolled,Donna pushed  15 toy cars.,None,10422,pushed __,no,F,11
10,they should break.,cause_effect_prior,"""None of the logs broke.""",Do you think Daniel is describing a normal event?,Joseph,object_low,M,15,logs,broke,Joseph ran  15 logs  over with a car.,None,10745,ran __ over with a car,no,M,12
10,,cause_effect_prior,"""Some of the bicycles stopped.""",Do you think Donald is describing a normal event?,Christina,object_low,F,15,bicycles,stopped,Christina pressed the brakes on  15 bicycles.,Some,8325,pressed the brakes on __,yes,M,13
10,,cause_effect_prior,"""All of the comedians laughed.""",Do you think Betty is describing a normal event?,Jennifer,object_mid,F,15,comedians,laughed,Jennifer told a joke to  15 comedians.,All,5209,told a joke to __,yes,F,14
10,butterflies don&quotechart eat seeds,cause_effect_prior,"""Nothing surprising there.""",Do you think Benjamin is describing a normal event?,Rachel,object_mid,F,15,butterflies,ate the seeds,Rachel left seeds out for  15 butterflies.,short_filler,13884,left seeds out for __,no,M,15
10,metal doesn&quotechart decompose,cause_effect_prior,"""All of the soda cans decomposed.""",Do you think Michael is describing a normal event?,George,object_low,M,15,soda cans,decomposed,George put  15 soda cans  in a compost pile for a month.,All,10680,put __ in a compost pile for a month,no,M,16
10,all should be stained,cause_effect_prior,"""Some of the white shirts got stained.""",Do you think John is describing a normal event?,Melissa,object_mid,F,15,white shirts,got stained,Melissa spilled red nail polish on  15 white shirts.,Some,8281,spilled red nail polish on __,no,M,17
10,carrots don&quotechart dissolve,cause_effect_prior,"""Some of the carrots dissolved.""",Do you think Anna is describing a normal event?,Jeffrey,object_low,M,15,carrots,dissolved,Jeffrey put  15 carrots  in a bucket of water.,Some,13149,put __ in a bucket of water,no,F,18
10,,cause_effect_prior,"""As usual.""",Do you think Larry is describing a normal event?,Susan,object_high,F,15,marbles,sank,Susan threw  15 marbles  into a pool.,short_filler,2781,threw __ into a pool,yes,M,19
10,they should all be green,cause_effect_prior,"""Some of the clovers were green.""",Do you think Nicholas is describing a normal event?,Cynthia,object_high,F,15,clovers,were green,Cynthia saw  15 clovers.,Some,8517,saw __,no,M,20
10,all of the berries should freeze,cause_effect_prior,"""Some of the berries froze.""",Do you think Amanda is describing a normal event?,Anthony,object_high,M,15,berries,froze,Anthony put  15 berries  in the freezer.,Some,12930,put __ in the freezer,no,F,21
10,,cause_effect_prior,"""None of the shirts ripped.""",Do you think Michelle is describing a normal event?,Angela,object_mid,F,15,shirts,ripped,Angela used  15 shirts  as dog toys.,None,5304,used __ as dog toys,yes,F,22
10,,cause_effect_prior,"""Some of the new cars beeped.""",Do you think Raymond is describing a normal event?,Julie,object_high,F,15,new cars,beeped,Julie left the lights on in  15 new cars.,Some,3363,left the lights on in __,yes,M,23
10,they should all pop,cause_effect_prior,"""Some of the balloons popped.""",Do you think Thomas is describing a normal event?,Amy,object_mid,F,15,balloons,popped,Amy poked  15 balloons  with a pin.,Some,7151,poked __ with a pin,no,M,24
10,baseballs don&quotechart stick to walls,cause_effect_prior,"""Some of the baseballs stuck to the wall.""",Do you think Laura is describing a normal event?,Gary,object_low,M,15,baseballs,stuck to the wall,Gary threw  15 baseballs  against a wall.,Some,8264,threw __ against a wall,no,F,25
10,Joyce is probably in jail for terrible driving.,cause_effect_prior,"""Nothing out of the ordinary.""",Do you think Kenneth is describing a normal event?,Joyce,object_mid,F,15,bus drivers,honked,Joyce cut off  15 bus drivers.,short_filler,13338,cut off __,no,M,26
10,You can&quotechart put things in the sun.,cause_effect_prior,"""Some of the mirrors reflected the sunlight.""",Do you think Carolyn is describing a normal event?,Rebecca,object_high,F,15,mirrors,reflected the sunlight,Rebecca placed  15 mirrors  in the sun.,Some,10369,placed __ in the sun,no,F,27
10,,cause_effect_prior,"""All of the limericks rhymed.""",Do you think Margaret is describing a normal event?,Matthew,object_high,M,15,limericks,rhymed,Matthew wrote  15 limericks.,All,4394,wrote __,yes,F,28
10,,cause_effect_prior,"""It&quotechars a beautiful day.""",Do you think Nicole is describing a normal event?,Emily,object_high,F,15,ice cubes,melted,Emily left  15 ice cubes  in the hot sun.,long_filler,2928,left __ in the hot sun,yes,F,29
10,,cause_effect_prior,"""All of the block towers fell down.""",Do you think Kimberly is describing a normal event?,Dorothy,object_mid,F,15,block towers,fell down,Dorothy punched  15 block towers.,All,4045,punched __,yes,F,30
10,,cause_effect_prior,"""Typical.""",Do you think Justin is describing a normal event?,Brandon,object_high,M,15,laptops,ran out of batteries,Brandon left  15 laptops  on (and unplugged) all day.,short_filler,3447,left __ on (and unplugged) all day,yes,M,31
10,,cause_effect_prior,"""Pretty normal.""",Do you think Tyler is describing a normal event?,Scott,object_low,M,15,beads,stuck,Scott glued  15 beads  to a piece of paper.,short_filler,5165,glued __ to a piece of paper,yes,M,32
11,,cause_effect_prior,"""Some of the comedians laughed.""",Do you think Matthew is describing a normal event?,Rachel,object_mid,F,15,comedians,laughed,Rachel told a joke to  15 comedians.,Some,4734,told a joke to __,yes,M,3
11,,cause_effect_prior,"""All of the oreos dissolved.""",Do you think Heather is describing a normal event?,Patrick,object_mid,M,15,oreos,dissolved,Patrick put  15 oreos  in a bucket of water.,All,3817,put __ in a bucket of water,yes,F,4
11,birds eat seeds,cause_effect_prior,"""None of the birds ate the seeds.""",Do you think Helen is describing a normal event?,Julie,object_high,F,15,birds,ate the seeds,Julie left seeds out for  15 birds.,None,7029,left seeds out for __,no,F,5
11,,cause_effect_prior,"""Nothing surprising there.""",Do you think Elizabeth is describing a normal event?,Benjamin,object_high,M,15,laptops,ran out of batteries,Benjamin left  15 laptops  on (and unplugged) all day.,short_filler,5792,left __ on (and unplugged) all day,yes,F,6
11,all stickers stick,cause_effect_prior,"""Some of the stickers stuck.""",Do you think Edward is describing a normal event?,Christopher,object_high,M,15,stickers,stuck,Christopher glued  15 stickers  to a piece of paper.,Some,16127,glued __ to a piece of paper,no,M,7
11,eggs don&quotechart pop,cause_effect_prior,"""Some of the eggs popped.""",Do you think Janet is describing a normal event?,Kenneth,object_low,M,15,eggs,popped,Kenneth poked  15 eggs  with a pin.,Some,6759,poked __ with a pin,no,F,8
11,backpakcs are too heavy,cause_effect_prior,"""Some of the backpacks blew away.""",Do you think Deborah is describing a normal event?,Jennifer,object_low,F,15,backpacks,blew away,Jennifer left  15 backpacks  on a table on a windy day.,Some,6888,left __ on a table on a windy day,no,F,9
11,,cause_effect_prior,"""All of the white shirts got stained.""",Do you think Karen is describing a normal event?,Betty,object_mid,F,15,white shirts,got stained,Betty spilled red nail polish on  15 white shirts.,All,2429,spilled red nail polish on __,yes,F,10
11,boxes don&quotechart breka,cause_effect_prior,"""None of the boxes broke.""",Do you think Daniel is describing a normal event?,Ronald,object_mid,M,15,boxes,broke,Ronald ran  15 boxes  over with a car.,None,6785,ran __ over with a car,no,M,11
11,houses dont&quotechar beep,cause_effect_prior,"""All of the houses beeped.""",Do you think Jessica is describing a normal event?,Stephanie,object_low,F,15,houses,beeped,Stephanie left the lights on in  15 houses.,All,5110,left the lights on in __,no,F,12
11,,cause_effect_prior,"""Some of the love notes had the letter Z in them.""",Do you think Robert is describing a normal event?,Carol,object_mid,F,15,love notes,had the letter Z in them,Carol wrote  15 love notes.,Some,4919,wrote __,yes,M,13
11,,cause_effect_prior,"""Some of the cameras flashed.""",Do you think Andrew is describing a normal event?,Gary,object_high,M,15,cameras,flashed,Gary took a picture with  15 cameras.,Some,2856,took a picture with __,yes,M,14
11,,cause_effect_prior,"""Some of the diamonds reflected the sunlight.""",Do you think Diane is describing a normal event?,Michelle,object_mid,F,15,diamonds,reflected the sunlight,Michelle placed  15 diamonds  in the sun.,Some,2136,placed __ in the sun,yes,F,15
11,,cause_effect_prior,"""As usual.""",Do you think Anna is describing a normal event?,Jonathan,object_high,M,15,coins,landed flat,Jonathan tossed  15 coins.,short_filler,2237,tossed __,yes,F,16
11,,cause_effect_prior,"""Some of the banana peels decomposed.""",Do you think Kimberly is describing a normal event?,Paul,object_high,M,15,banana peels,decomposed,Paul put  15 banana peels  in a compost pile for a month.,Some,3648,put __ in a compost pile for a month,yes,F,17
11,,cause_effect_prior,"""Nothing out of the ordinary.""",Do you think John is describing a normal event?,Emily,object_mid,F,15,shopping carts,rolled,Emily pushed  15 shopping carts.,short_filler,3343,pushed __,yes,M,18
11,,cause_effect_prior,"""It&quotechars so pretty.""",Do you think Brandon is describing a normal event?,Brian,object_mid,M,15,songs,rhymed,Brian wrote  15 songs.,long_filler,2007,wrote __,yes,M,19
11,they dont&quotechar explode ever,cause_effect_prior,"""None of the balls of tin foil exploded.""",Do you think Gregory is describing a normal event?,Donna,object_mid,F,15,balls of tin foil,exploded,Donna heated up  15 balls of tin foil  in a microwave.,None,7264,heated up __ in a microwave,no,M,20
11,,cause_effect_prior,"""Who came up with that idea?""",Do you think Cynthia is describing a normal event?,Virginia,object_low,F,15,candles,exploded,Virginia lit  15 candles.,long_filler,1983,lit __,yes,F,21
11,,cause_effect_prior,"""Pretty normal.""",Do you think Angela is describing a normal event?,Steven,object_low,M,15,pencils,melted,Steven left  15 pencils  in the hot sun.,short_filler,2550,left __ in the hot sun,yes,F,22
11,why is cake on the wall,cause_effect_prior,"""Some of the cakes stuck to the wall.""",Do you think Rebecca is describing a normal event?,Richard,object_mid,M,15,cakes,stuck to the wall,Richard threw  15 cakes  against a wall.,Some,6193,threw __ against a wall,no,F,23
11,,cause_effect_prior,"""All of the card towers fell down.""",Do you think Mary is describing a normal event?,Joyce,object_high,F,15,card towers,fell down,Joyce punched  15 card towers.,All,3215,punched __,yes,F,24
11,,cause_effect_prior,"""That reminds me I need to visit my grandma.""",Do you think Michael is describing a normal event?,David,object_mid,M,15,chocolate bars,froze,David put  15 chocolate bars  in the freezer.,long_filler,3320,put __ in the freezer,yes,M,25
11,,cause_effect_prior,"""Typical.""",Do you think Melissa is describing a normal event?,William,object_low,M,15,rocks,burnt,William threw  15 rocks  into a fire.,short_filler,1743,threw __ into a fire,yes,F,26
11,,cause_effect_prior,"""None of the cups sank.""",Do you think Nicholas is describing a normal event?,Margaret,object_mid,F,15,cups,sank,Margaret threw  15 cups  into a pool.,None,3318,threw __ into a pool,yes,M,27
11,,cause_effect_prior,"""I should start growing those myself.""",Do you think Shirley is describing a normal event?,Catherine,object_high,F,15,clovers,were green,Catherine saw  15 clovers.,long_filler,2294,saw __,yes,F,28
11,,cause_effect_prior,"""None of the bicycles stopped.""",Do you think Sharon is describing a normal event?,Lisa,object_low,F,15,bicycles,stopped,Lisa pressed the brakes on  15 bicycles.,None,3064,pressed the brakes on __,yes,F,29
11,,cause_effect_prior,"""All of the flashlights lit up.""",Do you think Jason is describing a normal event?,Amy,object_high,F,15,flashlights,lit up,Amy pressed the &quotecharon&quotechar button on  15 flashlights.,All,2127,pressed the &quotecharon&quotechar button on __,yes,M,30
11,,cause_effect_prior,"""Some of the shoes ripped.""",Do you think Dennis is describing a normal event?,Amanda,object_low,F,15,shoes,ripped,Amanda used  15 shoes  as dog toys.,Some,2400,used __ as dog toys,yes,M,31
11,,cause_effect_prior,"""That looks kind of dangerous.""",Do you think Larry is describing a normal event?,Kathleen,object_high,F,15,taxi drivers,honked,Kathleen cut off  15 taxi drivers.,long_filler,2543,cut off __,yes,M,32
12,,cause_effect_prior,"""Some of the books ripped.""",Do you think Scott is describing a normal event?,Virginia,object_high,F,15,books,ripped,Virginia used  15 books  as dog toys.,Some,7290,used __ as dog toys,yes,M,3
12,,cause_effect_prior,"""Pretty normal.""",Do you think Charles is describing a normal event?,Emily,object_mid,F,15,bus drivers,honked,Emily cut off  15 bus drivers.,short_filler,3239,cut off __,yes,M,4
12,,cause_effect_prior,"""There are people starving in the world.""",Do you think Brenda is describing a normal event?,Kathleen,object_mid,F,15,oreos,dissolved,Kathleen put  15 oreos  in a bucket of water.,long_filler,2528,put __ in a bucket of water,yes,F,5
12,baseballs don&quotechart get stuck,cause_effect_prior,"""All of the baseballs stuck to the wall.""",Do you think Jerry is describing a normal event?,Susan,object_low,F,15,baseballs,stuck to the wall,Susan threw  15 baseballs  against a wall.,All,17351,threw __ against a wall,no,M,6
12,,cause_effect_prior,"""All of the rocks burnt.""",Do you think Carolyn is describing a normal event?,Edward,object_low,M,15,rocks,burnt,Edward threw  15 rocks  into a fire.,All,6657,threw __ into a fire,yes,F,7
12,Houses don&quotechart beep,cause_effect_prior,"""Some of the houses beeped.""",Do you think Ashley is describing a normal event?,Steven,object_low,M,15,houses,beeped,Steven left the lights on in  15 houses.,Some,8503,left the lights on in __,no,F,8
12,,cause_effect_prior,"""As usual.""",Do you think David is describing a normal event?,Elizabeth,object_mid,F,15,bananas,were green,Elizabeth saw  15 bananas.,short_filler,6144,saw __,yes,M,9
12,,cause_effect_prior,"""It&quotechars so pretty.""",Do you think Shirley is describing a normal event?,Samuel,object_high,M,15,limericks,rhymed,Samuel wrote  15 limericks.,long_filler,8950,wrote __,yes,F,10
12,It&quotechars right it just sounds weird,cause_effect_prior,"""Some of the stickers stuck.""",Do you think William is describing a normal event?,Linda,object_high,F,15,stickers,stuck,Linda glued  15 stickers  to a piece of paper.,Some,21440,glued __ to a piece of paper,no,M,11
12,,cause_effect_prior,"""Some of the bike lights ran out of batteries.""",Do you think Paul is describing a normal event?,Robert,object_mid,M,15,bike lights,ran out of batteries,Robert left  15 bike lights  on (and unplugged) all day.,Some,6415,left __ on (and unplugged) all day,yes,M,12
12,,cause_effect_prior,"""Some of the toy cars rolled.""",Do you think Julie is describing a normal event?,Melissa,object_low,F,15,toy cars,rolled,Melissa pushed  15 toy cars.,Some,4712,pushed __,yes,F,13
12,Candles don&quotechart explode,cause_effect_prior,"""Some of the candles exploded.""",Do you think Timothy is describing a normal event?,James,object_low,M,15,candles,exploded,James lit  15 candles.,Some,9651,lit __,no,M,14
12,,cause_effect_prior,"""None of the phones flashed.""",Do you think Sarah is describing a normal event?,Lisa,object_mid,F,15,phones,flashed,Lisa took a picture with  15 phones.,None,6159,took a picture with __,yes,F,15
12,,cause_effect_prior,"""All of the berries froze.""",Do you think Donna is describing a normal event?,Samantha,object_high,F,15,berries,froze,Samantha put  15 berries  in the freezer.,All,5807,put __ in the freezer,yes,F,16
12,,cause_effect_prior,"""I just wish the weather was better.""",Do you think Gregory is describing a normal event?,Dennis,object_mid,M,15,hats,blew away,Dennis left  15 hats  on a table on a windy day.,long_filler,5023,left __ on a table on a windy day,yes,M,17
12,,cause_effect_prior,"""Some of the lawyers laughed.""",Do you think Jacob is describing a normal event?,Richard,object_low,M,15,lawyers,laughed,Richard told a joke to  15 lawyers.,Some,6415,told a joke to __,yes,M,18
12,,cause_effect_prior,"""All of the bubbles popped.""",Do you think Matthew is describing a normal event?,Heather,object_high,F,15,bubbles,popped,Heather poked  15 bubbles  with a pin.,All,4607,poked __ with a pin,yes,M,19
12,It&quotechars correct sounds odd though,cause_effect_prior,"""Some of the coins landed flat.""",Do you think Betty is describing a normal event?,Michelle,object_high,F,15,coins,landed flat,Michelle tossed  15 coins.,Some,15280,tossed __,no,F,20
12,,cause_effect_prior,"""Typical.""",Do you think Ryan is describing a normal event?,Jeffrey,object_high,M,15,card towers,fell down,Jeffrey punched  15 card towers.,short_filler,2896,punched __,yes,M,21
12,,cause_effect_prior,"""All of the cd-players lit up.""",Do you think Joseph is describing a normal event?,Angela,object_low,F,15,cd-players,lit up,Angela pressed the &quotecharon&quotechar button on  15 cd-players.,All,5970,pressed the &quotecharon&quotechar button on __,yes,M,22
12,,cause_effect_prior,"""None of the boxes broke.""",Do you think Jennifer is describing a normal event?,Dorothy,object_mid,F,15,boxes,broke,Dorothy ran  15 boxes  over with a car.,None,11736,ran __ over with a car,yes,F,23
12,,cause_effect_prior,"""Some of the pinecones decomposed.""",Do you think Jason is describing a normal event?,George,object_mid,M,15,pinecones,decomposed,George put  15 pinecones  in a compost pile for a month.,Some,4920,put __ in a compost pile for a month,yes,M,24
12,dont put Cds in a microwave Sandra!,cause_effect_prior,"""That&quotechars one way of spending your free time.""",Do you think Laura is describing a normal event?,Sandra,object_low,F,15,CDs,exploded,Sandra heated up  15 CDs  in a microwave.,long_filler,25240,heated up __ in a microwave,no,F,25
12,,cause_effect_prior,"""None of the butterflies ate the seeds.""",Do you think Sharon is describing a normal event?,Daniel,object_mid,M,15,butterflies,ate the seeds,Daniel left seeds out for  15 butterflies.,None,5479,left seeds out for __,yes,F,26
12,,cause_effect_prior,"""Nothing out of the ordinary.""",Do you think Christopher is describing a normal event?,Brandon,object_high,M,15,cars,stopped,Brandon pressed the brakes on  15 cars.,short_filler,12019,pressed the brakes on __,yes,M,27
12,,cause_effect_prior,"""None of the birthday cards had the letter Z in them.""",Do you think Frank is describing a normal event?,Jonathan,object_low,M,15,birthday cards,had the letter Z in them,Jonathan wrote  15 birthday cards.,None,5687,wrote __,yes,M,28
12,,cause_effect_prior,"""Nothing surprising there.""",Do you think Raymond is describing a normal event?,Thomas,object_mid,M,15,crayons,melted,Thomas left  15 crayons  in the hot sun.,short_filler,13528,left __ in the hot sun,yes,M,29
12,,cause_effect_prior,"""Some of the white shirts got stained.""",Do you think Catherine is describing a normal event?,Eric,object_mid,M,15,white shirts,got stained,Eric spilled red nail polish on  15 white shirts.,Some,7048,spilled red nail polish on __,yes,F,30
12,Christina is weird for leaving phones screens out in the sun,cause_effect_prior,"""Why not just take them inside?""",Do you think Patrick is describing a normal event?,Christina,object_low,F,15,phone screens,reflected the sunlight,Christina placed  15 phone screens  in the sun.,long_filler,25383,placed __ in the sun,no,M,31
12,,cause_effect_prior,"""None of the marbles sank.""",Do you think Benjamin is describing a normal event?,Deborah,object_high,F,15,marbles,sank,Deborah threw  15 marbles  into a pool.,None,5566,threw __ into a pool,yes,M,32
13,,cause_effect_prior,"""None of the berries froze.""",Do you think Susan is describing a normal event?,Linda,object_high,F,15,berries,froze,Linda put  15 berries  in the freezer.,None,11121,put __ in the freezer,yes,F,3
13,,cause_effect_prior,"""None of the birds ate the seeds.""",Do you think Stephanie is describing a normal event?,Brandon,object_high,M,15,birds,ate the seeds,Brandon left seeds out for  15 birds.,None,3110,left seeds out for __,yes,F,4
13,"It does not seem normal for a large group of bicyclists to just stop, something out of the ordinary must have happened to cause this. ",cause_effect_prior,"""All of the bicycles stopped.""",Do you think Thomas is describing a normal event?,Jacob,object_low,M,15,bicycles,stopped,Jacob pressed the brakes on  15 bicycles.,All,29415,pressed the brakes on __,no,M,5
13,It seems that all of the CD players should have lit up.,cause_effect_prior,"""Some of the cd-players lit up.""",Do you think Jonathan is describing a normal event?,Paul,object_low,M,15,cd-players,lit up,Paul pressed the &quotecharon&quotechar button on  15 cd-players.,Some,35163,pressed the &quotecharon&quotechar button on __,no,M,6
13,The carrots should not dissolve in water.,cause_effect_prior,"""All of the carrots dissolved.""",Do you think Deborah is describing a normal event?,Virginia,object_low,F,15,carrots,dissolved,Virginia put  15 carrots  in a bucket of water.,All,12788,put __ in a bucket of water,no,F,7
13,People don&quotechart just go around lighting off 15 fireworks at a time. ,cause_effect_prior,"""Typical.""",Do you think Ruth is describing a normal event?,Sandra,object_mid,F,15,fireworks,exploded,Sandra lit  15 fireworks.,short_filler,23901,lit __,no,F,8
13,The marbles should have sank,cause_effect_prior,"""None of the marbles sank.""",Do you think Dorothy is describing a normal event?,Kevin,object_high,M,15,marbles,sank,Kevin threw  15 marbles  into a pool.,None,9090,threw __ into a pool,no,F,9
13,,cause_effect_prior,"""As usual.""",Do you think Daniel is describing a normal event?,Joseph,object_high,M,15,new cars,beeped,Joseph left the lights on in  15 new cars.,short_filler,7396,left the lights on in __,yes,M,10
13,,cause_effect_prior,"""Some of the stickers stuck.""",Do you think David is describing a normal event?,Tyler,object_high,M,15,stickers,stuck,Tyler glued  15 stickers  to a piece of paper.,Some,4913,glued __ to a piece of paper,yes,M,11
13,,cause_effect_prior,"""That requires a lot of concentration.""",Do you think Michelle is describing a normal event?,Karen,object_high,F,15,bubbles,popped,Karen poked  15 bubbles  with a pin.,long_filler,5267,poked __ with a pin,yes,F,12
13,Putting pinecones into a compost does not reduce trash,cause_effect_prior,"""What a great way to reduce trash.""",Do you think Steven is describing a normal event?,Charles,object_mid,M,15,pinecones,decomposed,Charles put  15 pinecones  in a compost pile for a month.,long_filler,17436,put __ in a compost pile for a month,no,M,13
13,Why did Helen have 15 phones?,cause_effect_prior,"""All of the phones ran out of batteries.""",Do you think Sharon is describing a normal event?,Helen,object_low,F,15,phones,ran out of batteries,Helen left  15 phones  on (and unplugged) all day.,All,16993,left __ on (and unplugged) all day,no,F,14
13,,cause_effect_prior,"""All of the pencils melted.""",Do you think Emma is describing a normal event?,Emily,object_low,F,15,pencils,melted,Emily left  15 pencils  in the hot sun.,All,4616,left __ in the hot sun,yes,F,15
13,How did she manage to spill it on 15 different shirts?,cause_effect_prior,"""Why always the red?""",Do you think Christina is describing a normal event?,Shirley,object_mid,F,15,white shirts,got stained,Shirley spilled red nail polish on  15 white shirts.,long_filler,21274,spilled red nail polish on __,no,F,16
